stim_left;stim_right;stim_lev;left;right;stim;categorie;training_loop.thisRepN;training_loop.thisTrialN;training_loop.thisN;training_loop.thisIndex;trials_2.thisRepN;trials_2.thisTrialN;trials_2.thisN;trials_2.thisIndex;both_txt_loop.thisRepN;both_txt_loop.thisTrialN;both_txt_loop.thisN;both_txt_loop.thisIndex;both_stim_loop.thisRepN;both_stim_loop.thisTrialN;both_stim_loop.thisN;both_stim_loop.thisIndex;training_trials_loop.thisRepN;training_trials_loop.thisTrialN;training_trials_loop.thisN;training_trials_loop.thisIndex;stim_loop.thisRepN;stim_loop.thisTrialN;stim_loop.thisN;stim_loop.thisIndex;stim_test.thisRepN;stim_test.thisTrialN;stim_test.thisN;stim_test.thisIndex;stim_neutral_loop.thisRepN;stim_neutral_loop.thisTrialN;stim_neutral_loop.thisN;stim_neutral_loop.thisIndex;conterbalencement.thisRepN;conterbalencement.thisTrialN;conterbalencement.thisN;conterbalencement.thisIndex;istr_nh_loop.thisRepN;istr_nh_loop.thisTrialN;istr_nh_loop.thisN;istr_nh_loop.thisIndex;nh_loop_trials.thisRepN;nh_loop_trials.thisTrialN;nh_loop_trials.thisN;nh_loop_trials.thisIndex;istr_nb_loop.thisRepN;istr_nb_loop.thisTrialN;istr_nb_loop.thisN;istr_nb_loop.thisIndex;nb_loop_trials.thisRepN;nb_loop_trials.thisTrialN;nb_loop_trials.thisN;nb_loop_trials.thisIndex;conterbalencement2.thisRepN;conterbalencement2.thisTrialN;conterbalencement2.thisN;conterbalencement2.thisIndex;istr_hn_loop.thisRepN;istr_hn_loop.thisTrialN;istr_hn_loop.thisN;istr_hn_loop.thisIndex;hn_loop_trials.thisRepN;hn_loop_trials.thisTrialN;hn_loop_trials.thisN;hn_loop_trials.thisIndex;istr_bn_loop.thisRepN;istr_bn_loop.thisTrialN;istr_bn_loop.thisN;istr_bn_loop.thisIndex;bn_loop_trials.thisRepN;bn_loop_trials.thisTrialN;bn_loop_trials.thisN;bn_loop_trials.thisIndex;arousal_loop.thisRepN;arousal_loop.thisTrialN;arousal_loop.thisN;arousal_loop.thisIndex;valence_loop.thisRepN;valence_loop.thisTrialN;valence_loop.thisN;valence_loop.thisIndex;position.left;position.right;txt_right.started;txt_right.stopped;txt_left.started;txt_left.stopped;left.started;left.stopped;right.started;right.stopped;kb_trial_training.keys;kb_trial_training.rt;kb_trial_training.started;kb_trial_training.stopped;kb_extra_training.keys;kb_extra_training.rt;kb_extra_training.started;kb_extra_training.stopped;tactil_stim_level.response;tactil_stim_level.rt;img_nb_right.started;img_nb_right.stopped;img_nb_left.started;img_nb_left.stopped;img_trial_right.started;img_trial_right.stopped;img_trial_left.started;img_trial_left.stopped;resp.keys;resp.rt;resp.started;resp.stopped;img_nh_right.started;img_nh_right.stopped;img_nh_left.started;img_nh_left.stopped;half_break_left.started;half_break_left.stopped;kb_half_break.keys;kb_half_break.rt;kb_half_break.started;kb_half_break.stopped;img_bn_right.started;img_bn_right.stopped;img_bn_left.started;img_bn_left.stopped;img_hn_right.started;img_hn_right.stopped;img_hn_left.started;img_hn_left.stopped;img_arousal_right.started;img_arousal_right.stopped;img_arousal_left.started;img_arousal_left.stopped;img_val_right.started;img_val_right.stopped;img_val_left.started;img_val_left.stopped;kb_valuation.keys;kb_valuation.rt;kb_valuation.started;kb_valuation.stopped;img_valence_right.started;img_valence_right.stopped;img_valence_left.started;img_valence_left.stopped;txt_end_right.started;txt_end_right.stopped;txt_end_left.started;txt_end_left.stopped;participant;session;practice;stim_setting;date;expName;psychopyVersion;frameRate;
;;;;;;;0;0;0;0;0;0;0;0;;;;;;;;;;;;;;;;;;;;;;;;;;;;;;;;;;;;;;;;;;;;;;;;;;;;;;;;;;;;;;;;;;;;;;;;;;;;;;;;;;;;;;;;;;;;;;;;;;;;;;;;;;;;;;;;;;;;;;;;;;;;;;;;;;;;;;;;;;;;;;;1;001;1;1;2022_Jan_31_1650;VR_setting;2021.2.3;59.98690521890898;
;;;;;;;0;0;0;0;;;;;0;0;0;0;;;;;;;;;;;;;;;;;;;;;;;;;;;;;;;;;;;;;;;;;;;;;;;;;;;;;;;;;;;;;;;;;;;;;-8.8;8.8;41.20337720299722;None;41.20337720299722;None;;;;;;;;;;;;;;;;;;;;;;;;;;;;;;;;;;;;;;;;;;;;;;;;;;;;;;;;;;;;;;;;;1;001;1;1;2022_Jan_31_1650;VR_setting;2021.2.3;59.98690521890898;
;;;;;;;0;0;0;0;;;;;1;0;1;0;;;;;;;;;;;;;;;;;;;;;;;;;;;;;;;;;;;;;;;;;;;;;;;;;;;;;;;;;;;;;;;;;;;;;-9.0;9.0;46.37616437499673;None;46.37616437499673;None;;;;;;;;;;;;;;;;;;;;;;;;;;;;;;;;;;;;;;;;;;;;;;;;;;;;;;;;;;;;;;;;;1;001;1;1;2022_Jan_31_1650;VR_setting;2021.2.3;59.98690521890898;
;;;;;;;0;0;0;0;;;;;2;0;2;0;;;;;;;;;;;;;;;;;;;;;;;;;;;;;;;;;;;;;;;;;;;;;;;;;;;;;;;;;;;;;;;;;;;;;-9.2;9.2;47.65713525799947;None;47.65713525799947;None;;;;;;;;;;;;;;;;;;;;;;;;;;;;;;;;;;;;;;;;;;;;;;;;;;;;;;;;;;;;;;;;;1;001;1;1;2022_Jan_31_1650;VR_setting;2021.2.3;59.98690521890898;
;;;;;;;0;0;0;0;;;;;3;0;3;0;;;;;;;;;;;;;;;;;;;;;;;;;;;;;;;;;;;;;;;;;;;;;;;;;;;;;;;;;;;;;;;;;;;;;-9.2;9.2;48.010375045996625;None;48.010375045996625;None;;;;;;;;;;;;;;;;;;;;;;;;;;;;;;;;;;;;;;;;;;;;;;;;;;;;;;;;;;;;;;;;;1;001;1;1;2022_Jan_31_1650;VR_setting;2021.2.3;59.98690521890898;
;;;;;;;0;0;0;0;;;;;;;;;0;0;0;0;;;;;;;;;;;;;;;;;;;;;;;;;;;;;;;;;;;;;;;;;;;;;;;;;;;;;;;;;;;;;;;;;-9.2;9.2;;;;;;;;;;;;;;;;;;;;;;;;;;;;;;;;;;;;;;;;;;;;;;;;;;;;;;;;;;;;;;;;;;;;;1;001;1;1;2022_Jan_31_1650;VR_setting;2021.2.3;59.98690521890898;
images/NF.png;images/NM.png;;;;;;0;0;0;0;;;;;;;;;;;;;0;0;0;1;;;;;;;;;;;;;;;;;;;;;;;;;;;;;;;;;;;;;;;;;;;;;;;;;;;;;;;;;;;;;;;;;;;60.32199101000151;None;60.32199101000151;None;'j';27.64980581900454;60.32199101000151;None;;;;;;;;;;;;;;;;;;;;;;;;;;;;;;;;;;;;;;;;;;;;;;;;;;;;;;;;;1;001;1;1;2022_Jan_31_1650;VR_setting;2021.2.3;59.98690521890898;
images/NM.png;images/NF.png;;;;;;0;0;0;0;;;;;;;;;;;;;0;1;1;0;;;;;;;;;;;;;;;;;;;;;;;;;;;;;;;;;;;;;;;;;;;;;;;;;;;;;;;;;;;;;;;;;;;95.33322373800183;None;95.33322373800183;None;None;;95.33322373800183;None;;;;;;;;;;;;;;;;;;;;;;;;;;;;;;;;;;;;;;;;;;;;;;;;;;;;;;;;;1;001;1;1;2022_Jan_31_1650;VR_setting;2021.2.3;59.98690521890898;
images/NF.png;images/NM.png;;;;;;0;0;0;0;;;;;;;;;;;;;1;0;2;1;;;;;;;;;;;;;;;;;;;;;;;;;;;;;;;;;;;;;;;;;;;;;;;;;;;;;;;;;;;;;;;;;;;130.35057685300126;None;130.35057685300126;None;'l';4.436302442001761;130.35057685300126;None;;;;;;;;;;;;;;;;;;;;;;;;;;;;;;;;;;;;;;;;;;;;;;;;;;;;;;;;;1;001;1;1;2022_Jan_31_1650;VR_setting;2021.2.3;59.98690521890898;
images/NM.png;images/NF.png;;;;;;0;0;0;0;;;;;;;;;;;;;1;1;3;0;;;;;;;;;;;;;;;;;;;;;;;;;;;;;;;;;;;;;;;;;;;;;;;;;;;;;;;;;;;;;;;;;;;165.36659329899703;None;165.36659329899703;None;'l','j','l','j','k','l','j','k','l';5.927353350998601,7.740146864998678,10.299300849997962,13.294184824997501,15.274288410997542,16.81429507899884,21.459225551996497,25.31432494999899,25.79330162799306;165.36659329899703;None;;;;;;;;;;;;;;;;;;;;;;;;;;;;;;;;;;;;;;;;;;;;;;;;;;;;;;;;;1;001;1;1;2022_Jan_31_1650;VR_setting;2021.2.3;59.98690521890898;
;;;;;;;0;0;0;0;;;;;;;;;;;;;;;;;;;;;;;;;;;;;;;;;;;;;;;;;;;;;;;;;;;;;;;;;;;;;;;;;;;;;;;;;;;;;;;;;;;;;;;;;;;n;17.20845994800038;198.37716288900265;None;;;;;;;;;;;;;;;;;;;;;;;;;;;;;;;;;;;;;;;;;;;;;;;;;;;;;1;001;1;1;2022_Jan_31_1650;VR_setting;2021.2.3;59.98690521890898;
;;high;;;;;;;;;;;;;;;;;;;;;;;;;0;0;0;0;0;0;0;0;;;;;;;;;;;;;;;;;;;;;;;;;;;;;;;;;;;;;;;;;;;;;;;;;;;;;;;;;;;;;;;;;;;;;;;;;;;;;;;;;;;;;;;;;;;;;;;;;;;;;;;;;;;;;;;;;;;;;;;;;;;1;001;1;1;2022_Jan_31_1650;VR_setting;2021.2.3;59.98690521890898;
;;medium;;;;;;;;;;;;;;;;;;;;;;;;;0;0;0;0;0;1;1;1;;;;;;;;;;;;;;;;;;;;;;;;;;;;;;;;;;;;;;;;;;;;;;;;;;;;;;;;;;;;;;;;;;;;;;;;;;;;;;;;;;;;;;;;;;;;;;;;;;;;;;;;;;;;;;;;;;;;;;;;;;;1;001;1;1;2022_Jan_31_1650;VR_setting;2021.2.3;59.98690521890898;
;;low;;;;;;;;;;;;;;;;;;;;;;;;;0;0;0;0;0;2;2;2;;;;;;;;;;;;;;;;;;;;;;;;;;;;;;;;;;;;;;;;;;;;;;;;;;;;;;;;;;;;;;;;;;;;;;;;;;;;;;;;;;;;;;;;;;;;;;;;;;;;;;;;;;;;;;;;;;;;;;;;;;;1;001;1;1;2022_Jan_31_1650;VR_setting;2021.2.3;59.98690521890898;
;;;;;;;;;;;;;;;;;;;;;;;;;;;0;0;0;0;;;;;0;0;0;0;;;;;;;;;;;;;;;;;;;;;;;;;;;;;;;;;;;;;;;;;;;;;;;;;;;;;;;;;;;;;;;;;;;;;;;;;;;;;;;;;;;;;;;;;;;;;;;;;;;;;;;;;;;;;;;;;;;;;;;1;001;1;1;2022_Jan_31_1650;VR_setting;2021.2.3;59.98690521890898;
;;;;;;;;;;;;;;;;;;;;;;;;;;;0;0;0;0;;;;;;;;;;;;;;;;;;;;;;;;;;;;;;;;;;;;;;;;;;;;;;;;;;;;;;;;;;;;;;;;;;;;;;;;;;;0;3.955;;;;;;;;;;;;;;;;;;;;;;;;;;;;;;;;;;;;;;;;;;;;;;;;;;;1;001;1;1;2022_Jan_31_1650;VR_setting;2021.2.3;59.98690521890898;
;;;;;;;;;;;;;;;;;;;;;;;;;;;;;;;;;;;;;;;0;0;0;0;;;;;;;;;0;0;0;0;;;;;;;;;;;;;;;;;;;;;;;;;;;;;;;;;;;;;;;;;;;;;;;;;;;;;244.6457227589999;None;244.6457227589999;None;;;;;;;;;;;;;;;;;;;;;;;;;;;;;;;;;;;;;;;;;;;;;;;1;001;1;1;2022_Jan_31_1650;VR_setting;2021.2.3;59.98690521890898;
;;;images/MAM11BFI.png;images/MAM11NES.png;0;;;;;;;;;;;;;;;;;;;;;;;;;;;;;;;;;;0;0;0;0;;;;;;;;;;;;;0;0;0;1;;;;;;;;;;;;;;;;;;;;;;;;;;;;;;;;;;;;;;;;;;;;;;;;;;;;;252.1362372040021;None;252.1362372040021;None;'l','k','j','k','j','l','k','j';1.072508197001298,5.185488506002002,6.303636247997929,24.803551949000394,25.15753164399939,25.552489859997877,26.333534233002865,29.080636093996873;252.1362372040021;None;;;;;;;;;;;;;;;;;;;;;;;;;;;;;;;;;;;;;;;1;001;1;1;2022_Jan_31_1650;VR_setting;2021.2.3;59.98690521890898;
;;;images/MAM11NES.png;images/MAM11BFI.png;1;;;;;;;;;;;;;;;;;;;;;;;;;;;;;;;;;;0;0;0;0;;;;;;;;;;;;;0;1;1;2;;;;;;;;;;;;;;;;;;;;;;;;;;;;;;;;;;;;;;;;;;;;;;;;;;;;;287.1516695620012;None;287.1516695620012;None;'k','l','k','l','j','k','l','k','l';1.6701044840010582,1.9420940470008645,9.779138595004042,11.759108612997807,12.803072034999786,18.298248880004394,23.841134360998694,24.46722384000168,28.85814419900271;287.1516695620012;None;;;;;;;;;;;;;;;;;;;;;;;;;;;;;;;;;;;;;;;1;001;1;1;2022_Jan_31_1650;VR_setting;2021.2.3;59.98690521890898;
;;;images/MAM11BFI.png;images/MAM11NES.png;1;;;;;;;;;;;;;;;;;;;;;;;;;;;;;;;;;;0;0;0;0;;;;;;;;;;;;;0;2;2;3;;;;;;;;;;;;;;;;;;;;;;;;;;;;;;;;;;;;;;;;;;;;;;;;;;;;;322.16972310099663;None;322.16972310099663;None;'k','l','k','j','k','j','l','k','j';4.28501236000011,4.7741456880030455,9.143113477002771,9.450088156001584,18.88706922500569,19.477154325999436,20.048182250000536,22.276096812005562,23.232194354000967;322.16972310099663;None;;;;;;;;;;;;;;;;;;;;;;;;;;;;;;;;;;;;;;;1;001;1;1;2022_Jan_31_1650;VR_setting;2021.2.3;59.98690521890898;
;;;images/MAM11NES.png;images/MAM11BFI.png;0;;;;;;;;;;;;;;;;;;;;;;;;;;;;;;;;;;0;0;0;0;;;;;;;;;;;;;0;3;3;0;;;;;;;;;;;;;;;;;;;;;;;;;;;;;;;;;;;;;;;;;;;;;;;;;;;;;357.18611557700206;None;357.18611557700206;None;'k','l','k','l','j','l','j','k','j','l','j';1.7756141949939774,2.1466751209954964,9.51265151899861,12.957747050000762,14.929748966998886,17.55774646699865,21.656654323996918,25.02268137899955,25.93678148699837,26.486832372000208,29.741678052996576;357.18611557700206;None;;;;;;;;;;;;;;;;;;;;;;;;;;;;;;;;;;;;;;;1;001;1;1;2022_Jan_31_1650;VR_setting;2021.2.3;59.98690521890898;
;;;images/MAM11BFI.png;images/MAM11NES.png;1;;;;;;;;;;;;;;;;;;;;;;;;;;;;;;;;;;0;0;0;0;;;;;;;;;;;;;1;0;4;3;;;;;;;;;;;;;;;;;;;;;;;;;;;;;;;;;;;;;;;;;;;;;;;;;;;;;392.2019497930014;None;392.2019497930014;None;'k','l','j','k','l','k','j','k','j','j';1.9347779669988086,2.2177868229991873,7.7359332790001645,10.920852904004278,11.812856500000635,12.913926647001063,14.428866059002758,15.328793651002343,17.045818067002983,29.88983570200071;392.2019497930014;None;;;;;;;;;;;;;;;;;;;;;;;;;;;;;;;;;;;;;;;1;001;1;1;2022_Jan_31_1650;VR_setting;2021.2.3;59.98690521890898;
;;;images/MAM11BFI.png;images/MAM11NES.png;0;;;;;;;;;;;;;;;;;;;;;;;;;;;;;;;;;;0;0;0;0;;;;;;;;;;;;;1;1;5;1;;;;;;;;;;;;;;;;;;;;;;;;;;;;;;;;;;;;;;;;;;;;;;;;;;;;;427.2121573990007;None;427.2121573990007;None;'j','k','l','k','l','j','k','l','l','l','k','j';3.075727014002041,4.051655016002769,6.769735141999263,9.039656314998865,10.600665616002516,13.92773658400256,19.801769311001408,20.26865585300402,23.06564184799936,23.378662634000648,28.38377819499874,28.701735406000807;427.2121573990007;None;;;;;;;;;;;;;;;;;;;;;;;;;;;;;;;;;;;;;;;1;001;1;1;2022_Jan_31_1650;VR_setting;2021.2.3;59.98690521890898;
;;;images/MAM11NES.png;images/MAM11BFI.png;0;;;;;;;;;;;;;;;;;;;;;;;;;;;;;;;;;;0;0;0;0;;;;;;;;;;;;;1;2;6;0;;;;;;;;;;;;;;;;;;;;;;;;;;;;;;;;;;;;;;;;;;;;;;;;;;;;;462.23488598300173;None;462.23488598300173;None;'k','l','j','k','k','l','k','j','k','l','l';1.6499199680038146,2.7700166450013057,11.527007529999537,16.23598789799871,20.28291789299692,20.590985962997365,24.788046079003834,26.943036060998566,28.073921365998103,28.372853558001225,29.342054911998275;462.23488598300173;None;;;;;;;;;;;;;;;;;;;;;;;;;;;;;;;;;;;;;;;1;001;1;1;2022_Jan_31_1650;VR_setting;2021.2.3;59.98690521890898;
;;;images/MAM11NES.png;images/MAM11BFI.png;1;;;;;;;;;;;;;;;;;;;;;;;;;;;;;;;;;;0;0;0;0;;;;;;;;;;;;;1;3;7;2;;;;;;;;;;;;;;;;;;;;;;;;;;;;;;;;;;;;;;;;;;;;;;;;;;;;;497.24425175000215;None;497.24425175000215;None;'j','k','l','k','j','k','l','k','j','j','l','j','k';1.0725171230005799,2.705690978000348,3.750619974998699,5.908534590998897,6.234547359999851,16.080510355001024,17.69848618299875,18.63449744000536,18.94963896200352,24.08763094599999,25.929476910998346,27.14155614899937,28.861491895004292;497.24425175000215;None;;;;;;;;;;;;;;;;;;;;;;;;;;;;;;;;;;;;;;;1;001;1;1;2022_Jan_31_1650;VR_setting;2021.2.3;59.98690521890898;
;;;images/MAM11NES.png;images/MAM11BFI.png;0;;;;;;;;;;;;;;;;;;;;;;;;;;;;;;;;;;0;0;0;0;;;;;;;;;;;;;2;0;8;0;;;;;;;;;;;;;;;;;;;;;;;;;;;;;;;;;;;;;;;;;;;;;;;;;;;;;532.2606927579982;None;532.2606927579982;None;'k','l','j','k','l','j','l','j','k','l','l','j';1.5470738520016312,6.007033157002297,12.226183578997734,13.710140565999609,14.20119807300216,15.14105716800259,18.46122926499811,19.881204680001247,23.19010860400158,23.57805591399665,24.433186638001644,26.876185740999063;532.2606927579982;None;;;;;;;;;;;;;;;;;;;;;;;;;;;;;;;;;;;;;;;1;001;1;1;2022_Jan_31_1650;VR_setting;2021.2.3;59.98690521890898;
;;;images/MAM11BFI.png;images/MAM11NES.png;1;;;;;;;;;;;;;;;;;;;;;;;;;;;;;;;;;;0;0;0;0;;;;;;;;;;;;;2;1;9;3;;;;;;;;;;;;;;;;;;;;;;;;;;;;;;;;;;;;;;;;;;;;;;;;;;;;;567.2829761050016;None;567.2829761050016;None;'k','j','l','j','k','j','l','k','l','k','j';1.1838138960010838,4.860911636002129,8.677913838000677,10.64189831600379,12.353830815998663,14.845909240997571,18.77890757100249,19.9317703409979,21.229907334003656,25.34290761900047,26.090778058001888;567.2829761050016;None;;;;;;;;;;;;;;;;;;;;;;;;;;;;;;;;;;;;;;;1;001;1;1;2022_Jan_31_1650;VR_setting;2021.2.3;59.98690521890898;
;;;images/MAM11NES.png;images/MAM11BFI.png;1;;;;;;;;;;;;;;;;;;;;;;;;;;;;;;;;;;0;0;0;0;;;;;;;;;;;;;2;2;10;2;;;;;;;;;;;;;;;;;;;;;;;;;;;;;;;;;;;;;;;;;;;;;;;;;;;;;602.3011309180001;None;602.3011309180001;None;'k','l','j','k','l','j','l','j','l','j','l';1.4517447499965783,1.688641444001405,5.33374050999555,8.38374135599588,8.999624422001943,11.882618596995599,14.232632485000067,18.68374165699788,21.339742897995166,25.7787682509952,29.23466594799538;602.3011309180001;None;;;;;;;;;;;;;;;;;;;;;;;;;;;;;;;;;;;;;;;1;001;1;1;2022_Jan_31_1650;VR_setting;2021.2.3;59.98690521890898;
;;;images/MAM11BFI.png;images/MAM11NES.png;0;;;;;;;;;;;;;;;;;;;;;;;;;;;;;;;;;;0;0;0;0;;;;;;;;;;;;;2;3;11;1;;;;;;;;;;;;;;;;;;;;;;;;;;;;;;;;;;;;;;;;;;;;;;;;;;;;;637.3123983339974;None;637.3123983339974;None;'l','j','l','k','l';2.2054745119967265,7.2185129019999295,9.199504759002593,15.229501688998425,15.514498144002573;637.3123983339974;None;;;;;;;;;;;;;;;;;;;;;;;;;;;;;;;;;;;;;;;1;001;1;1;2022_Jan_31_1650;VR_setting;2021.2.3;59.98690521890898;
;;;;;;;;;;;;;;;;;;;;;;;;;;;;;;;;;;;;;;;0;0;0;0;;;;;;;;;;;;;;;;;;;;;;;;;;;;;;;;;;;;;;;;;;;;;;;;;;;;;;;;;;;;;;;;;;;;;;;;;;;;;;;;;;;;;;;;;;;;;;;;;;;;;;;;;;;;;;;;;;;1;001;1;1;2022_Jan_31_1650;VR_setting;2021.2.3;59.98690521890898;
;;;;;;;;;;;;;;;;;;;;;;;;;;;;;;;;;;;;;;;1;0;1;0;0;0;0;0;;;;;;;;;;;;;;;;;;;;;;;;;;;;;;;;;;;;;;;;;;;;;;;;;;;;;;;;;;;;;;;;;;;;;;;;;670.3205262359988;None;670.3205262359988;None;;;;;;;;;;;;;;;;;;;;;;;;;;;;;;;;;;;1;001;1;1;2022_Jan_31_1650;VR_setting;2021.2.3;59.98690521890898;
;;;images/MAM11NES.png;images/MAM11HAS.png;1;;;;;;;;;;;;;;;;;;;;;;;;;;;;;;;;;;1;0;1;0;;;;;0;0;0;3;;;;;;;;;;;;;;;;;;;;;;;;;;;;;;;;;;;;;;;;;;;;;;;;;;;;;;;;;;;;;681.2347967599999;None;681.2347967599999;None;'l','j','l','k','j','l','k','l','k','j','l';0.8391079290013295,6.97914588200365,9.162109536999196,16.699089050998737,16.908004467004503,18.744098173003295,19.23600978500326,19.825099897003383,22.47903267800575,23.143106979005097,24.580926057002216;681.2347967599999;None;;;;;;;;;;;;;;;;;;;;;;;;;;;;;;;;;;;;;;;1;001;1;1;2022_Jan_31_1650;VR_setting;2021.2.3;59.98690521890898;
;;;images/MAM11HAS.png;images/MAM11NES.png;1;;;;;;;;;;;;;;;;;;;;;;;;;;;;;;;;;;1;0;1;0;;;;;0;1;1;2;;;;;;;;;;;;;;;;;;;;;;;;;;;;;;;;;;;;;;;;;;;;;;;;;;;;;;;;;;;;;716.2471559979967;None;716.2471559979967;None;'l','k','l','j','k','l','k','j','k','l';2.0226600829992094,10.31971301700105,12.600648881001689,14.858732511005655,16.06765289800387,19.312769957003184,20.900646890004282,22.76059690600232,23.206611105000775,25.954715270003362;716.2471559979967;None;;;;;;;;;;;;;;;;;;;;;;;;;;;;;;;;;;;;;;;1;001;1;1;2022_Jan_31_1650;VR_setting;2021.2.3;59.98690521890898;
;;;images/MAM11HAS.png;images/MAM11NES.png;0;;;;;;;;;;;;;;;;;;;;;;;;;;;;;;;;;;1;0;1;0;;;;;0;2;2;0;;;;;;;;;;;;;;;;;;;;;;;;;;;;;;;;;;;;;;;;;;;;;;;;;;;;;;;;;;;;;751.2581589010006;None;751.2581589010006;None;'l','j','k','l','j','k';5.878600403004384,14.470757242001127,16.405635582006653,17.242609956003434,26.944697161001386,28.47972238400689;751.2581589010006;None;;;;;;;;;;;;;;;;;;;;;;;;;;;;;;;;;;;;;;;1;001;1;1;2022_Jan_31_1650;VR_setting;2021.2.3;59.98690521890898;
;;;images/MAM11NES.png;images/MAM11HAS.png;0;;;;;;;;;;;;;;;;;;;;;;;;;;;;;;;;;;1;0;1;0;;;;;0;3;3;1;;;;;;;;;;;;;;;;;;;;;;;;;;;;;;;;;;;;;;;;;;;;;;;;;;;;;;;;;;;;;786.2784969290005;None;786.2784969290005;None;'k','k','l','j','k','l','k','l','k','l';1.4964057089964626,2.0273730399931083,2.253235735995986,6.253230010996049,11.621264046996657,12.08529989499948,15.033309576996544,17.0463879539966,24.65937105299963,26.444377683998027;786.2784969290005;None;;;;;;;;;;;;;;;;;;;;;;;;;;;;;;;;;;;;;;;1;001;1;1;2022_Jan_31_1650;VR_setting;2021.2.3;59.98690521890898;
;;;images/MAM11NES.png;images/MAM11HAS.png;1;;;;;;;;;;;;;;;;;;;;;;;;;;;;;;;;;;1;0;1;0;;;;;1;0;4;3;;;;;;;;;;;;;;;;;;;;;;;;;;;;;;;;;;;;;;;;;;;;;;;;;;;;;;;;;;;;;821.2902560479997;None;821.2902560479997;None;'l','k','j','j','k','j','k','j','k','l','j','k','l','j','k','l','k','j';3.293495342004462,4.400559275003616,4.71863089800172,5.045501860004151,5.4366328610049095,7.906529199004581,8.148534619002021,8.31560249600443,8.53164160400047,13.735631162002392,15.594568710002932,17.924480358000437,19.666618781004217,22.708603434002725,23.728504834005435,24.053634418,24.749615190004988,28.057470981002552;821.2902560479997;None;;;;;;;;;;;;;;;;;;;;;;;;;;;;;;;;;;;;;;;1;001;1;1;2022_Jan_31_1650;VR_setting;2021.2.3;59.98690521890898;
;;;images/MAM11NES.png;images/MAM11HAS.png;0;;;;;;;;;;;;;;;;;;;;;;;;;;;;;;;;;;1;0;1;0;;;;;1;1;5;1;;;;;;;;;;;;;;;;;;;;;;;;;;;;;;;;;;;;;;;;;;;;;;;;;;;;;;;;;;;;;856.3057910549978;None;856.3057910549978;None;'l','k','l','k','j','l','j','k','l','k','l';0.948069228004897,5.783105394002632,6.436094358003174,9.149056779999228,9.454098178001004,11.954097956004262,17.18109833700146,20.039966493000975,21.91909612100426,23.299097914001322,27.653083543998946;856.3057910549978;None;;;;;;;;;;;;;;;;;;;;;;;;;;;;;;;;;;;;;;;1;001;1;1;2022_Jan_31_1650;VR_setting;2021.2.3;59.98690521890898;
;;;images/MAM11HAS.png;images/MAM11NES.png;0;;;;;;;;;;;;;;;;;;;;;;;;;;;;;;;;;;1;0;1;0;;;;;1;2;6;0;;;;;;;;;;;;;;;;;;;;;;;;;;;;;;;;;;;;;;;;;;;;;;;;;;;;;;;;;;;;;891.3282633359995;None;891.3282633359995;None;'k','l','j','k','j','l','k','l';1.3925010059974738,1.82160717700026,7.994614595998428,11.416532061994076,14.621610356996825,17.34763073999784,24.470663259999128,25.119599859994196;891.3282633359995;None;;;;;;;;;;;;;;;;;;;;;;;;;;;;;;;;;;;;;;;1;001;1;1;2022_Jan_31_1650;VR_setting;2021.2.3;59.98690521890898;
;;;images/MAM11HAS.png;images/MAM11NES.png;1;;;;;;;;;;;;;;;;;;;;;;;;;;;;;;;;;;1;0;1;0;;;;;1;3;7;2;;;;;;;;;;;;;;;;;;;;;;;;;;;;;;;;;;;;;;;;;;;;;;;;;;;;;;;;;;;;;926.3390242379974;None;926.3390242379974;None;'l','j','l','k','l','j','k','l','l','j','k','j','k','l';2.1957632530029514,8.73587088700151,10.15086702300323,15.245745239000826,16.93290787799924,17.950808029003383,20.5487274219995,21.033863812001073,21.223702989998856,23.771808604004036,24.39984954400279,26.03973263700027,26.407846433998202,29.796847069999785;926.3390242379974;None;;;;;;;;;;;;;;;;;;;;;;;;;;;;;;;;;;;;;;;1;001;1;1;2022_Jan_31_1650;VR_setting;2021.2.3;59.98690521890898;
;;;images/MAM11HAS.png;images/MAM11NES.png;0;;;;;;;;;;;;;;;;;;;;;;;;;;;;;;;;;;1;0;1;0;;;;;2;0;8;0;;;;;;;;;;;;;;;;;;;;;;;;;;;;;;;;;;;;;;;;;;;;;;;;;;;;;;;;;;;;;961.3560918119983;None;961.3560918119983;None;'l','j','k','l','j','k','j','k','j','k','l';3.379769731000124,9.317702699998335,11.660677704996488,12.261670043997583,18.585762859998795,18.70974822199787,18.905652567998914,20.17266471200128,24.331782296998426,25.65169870099635,28.1747774079995;961.3560918119983;None;;;;;;;;;;;;;;;;;;;;;;;;;;;;;;;;;;;;;;;1;001;1;1;2022_Jan_31_1650;VR_setting;2021.2.3;59.98690521890898;
;;;images/MAM11NES.png;images/MAM11HAS.png;0;;;;;;;;;;;;;;;;;;;;;;;;;;;;;;;;;;1;0;1;0;;;;;2;1;9;1;;;;;;;;;;;;;;;;;;;;;;;;;;;;;;;;;;;;;;;;;;;;;;;;;;;;;;;;;;;;;996.3769062069987;None;996.3769062069987;None;'j','j','l','j','k','l';3.94482382699789,5.852957667004375,8.714945200001239,22.394980208999186,24.68586642399896,25.079891501998645;996.3769062069987;None;;;;;;;;;;;;;;;;;;;;;;;;;;;;;;;;;;;;;;;1;001;1;1;2022_Jan_31_1650;VR_setting;2021.2.3;59.98690521890898;
;;;images/MAM11HAS.png;images/MAM11NES.png;1;;;;;;;;;;;;;;;;;;;;;;;;;;;;;;;;;;1;0;1;0;;;;;2;2;10;2;;;;;;;;;;;;;;;;;;;;;;;;;;;;;;;;;;;;;;;;;;;;;;;;;;;;;;;;;;;;;1031.3929317329967;None;1031.3929317329967;None;'l','k','l','j','k','l','j','k','j','l';1.11095311200188,8.82084149900038,9.382847523003875,11.242943342003855,14.653986088000238,16.280902824000805,21.666868359003274,22.646962909006106,26.93285739100247,29.402980664002826;1031.3929317329967;None;;;;;;;;;;;;;;;;;;;;;;;;;;;;;;;;;;;;;;;1;001;1;1;2022_Jan_31_1650;VR_setting;2021.2.3;59.98690521890898;
;;;images/MAM11NES.png;images/MAM11HAS.png;1;;;;;;;;;;;;;;;;;;;;;;;;;;;;;;;;;;1;0;1;0;;;;;2;3;11;3;;;;;;;;;;;;;;;;;;;;;;;;;;;;;;;;;;;;;;;;;;;;;;;;;;;;;;;;;;;;;1066.407572418997;None;1066.407572418997;None;'l','k','l','k','l','k','j','l';0.8603129010007251,1.658239300995774,5.128190219998942,9.699320093997812,10.975202641995566,18.54932185299549,18.900241003997508,22.55124450099538;1066.407572418997;None;;;;;;;;;;;;;;;;;;;;;;;;;;;;;;;;;;;;;;;1;001;1;1;2022_Jan_31_1650;VR_setting;2021.2.3;59.98690521890898;
;;;;;;;;;;;;;;;;;;;;;;;;;;;;;;;;;;;;;;;1;0;1;0;;;;;;;;;;;;;;;;;;;;;;;;;;;;;;;;;;;;;;;;;;;;;;;;;;;;;;;;;;;;;;;;;;;;;;;;;;;;;;;;;;;;;;;;;;;;;;;;;;;;;;;;;;;;;;;;;;;1;001;1;1;2022_Jan_31_1650;VR_setting;2021.2.3;59.98690521890898;
;;;;;;;;;;;;;;;;;;;;;;;;;;;;;;;;;;;;;;;;;;;;;;;;;;;;;;;;;;;;;;;;;;;;;;;;;;;;;;;;;;;;;;;;;;;;;;;;;;;;;;;;;;;;;;;;;;;;;;;;;;;1099.4174568750022;None;space;57.4400620880042;1099.4174568750022;None;;;;;;;;;;;;;;;;;;;;;;;;;;;;;1;001;1;1;2022_Jan_31_1650;VR_setting;2021.2.3;59.98690521890898;
;;;;;;;;;;;;;;;;;;;;;;;;;;;;;;;;;;;;;;;;;;;;;;;;;;;;;;;;;;;0;0;0;0;;;;;;;;;0;0;0;0;;;;;;;;;;;;;;;;;;;;;;;;;;;;;;;;;;;;;;;;;;;;;;;;;;;;;;;1156.8818724879966;None;1156.8818724879966;None;;;;;;;;;;;;;;;;;;;;;;;;;1;001;1;1;2022_Jan_31_1650;VR_setting;2021.2.3;59.98690521890898;
;;;images/MAM11NES.png;images/MAM11BFI.png;1;;;;;;;;;;;;;;;;;;;;;;;;;;;;;;;;;;;;;;;;;;;;;;;;;;;;;;0;0;0;0;;;;;;;;;;;;;0;0;0;2;;;;;;;;;;;;;;;;;;;;;;;;;;;;;;;;;1161.6850989700033;None;1161.6850989700033;None;'j','k','l','j','k','l','k','l','j','k';0.6527841370043461,9.36077318500611,9.643685041002755,15.597703220002586,17.476847740006633,17.70876764600689,21.954717993001395,22.47869285800698,26.726851940002234,28.02268548500433;1161.6850989700033;None;;;;;;;;;;;;;;;;;;;;;;;;;;;;;;;;;;;;;;;1;001;1;1;2022_Jan_31_1650;VR_setting;2021.2.3;59.98690521890898;
;;;images/MAM11BFI.png;images/MAM11NES.png;0;;;;;;;;;;;;;;;;;;;;;;;;;;;;;;;;;;;;;;;;;;;;;;;;;;;;;;0;0;0;0;;;;;;;;;;;;;0;1;1;1;;;;;;;;;;;;;;;;;;;;;;;;;;;;;;;;;1196.7075048650004;None;1196.7075048650004;None;'j','k','k','l','k','j';2.036369615001604,16.942401822998363,21.246295570002985,21.481376468000235,26.43529177000164,28.66537818100187;1196.7075048650004;None;;;;;;;;;;;;;;;;;;;;;;;;;;;;;;;;;;;;;;;1;001;1;1;2022_Jan_31_1650;VR_setting;2021.2.3;59.98690521890898;
;;;images/MAM11NES.png;images/MAM11BFI.png;0;;;;;;;;;;;;;;;;;;;;;;;;;;;;;;;;;;;;;;;;;;;;;;;;;;;;;;0;0;0;0;;;;;;;;;;;;;0;2;2;0;;;;;;;;;;;;;;;;;;;;;;;;;;;;;;;;;1231.7232228400026;None;1231.7232228400026;None;'j','k','j','k','l','k','l','j','k','l','k','j','l','k','j';1.1496510519937146,4.512655899998208,6.474571152000863,7.512682283995673,9.620681288994092,12.857543006000924,14.649722366993956,15.352649731998099,17.674522449000506,18.660662867994688,20.823578487994382,23.095661172999826,25.33552286799386,27.558644821998314,28.87357348099613;1231.7232228400026;None;;;;;;;;;;;;;;;;;;;;;;;;;;;;;;;;;;;;;;;1;001;1;1;2022_Jan_31_1650;VR_setting;2021.2.3;59.98690521890898;
;;;images/MAM11BFI.png;images/MAM11NES.png;1;;;;;;;;;;;;;;;;;;;;;;;;;;;;;;;;;;;;;;;;;;;;;;;;;;;;;;0;0;0;0;;;;;;;;;;;;;0;3;3;3;;;;;;;;;;;;;;;;;;;;;;;;;;;;;;;;;1266.7408515900024;None;1266.7408515900024;None;'j','k','k','l','k','j','l','j','k','k','j','l','k','l','l';0.814024977000372,5.553096715993888,7.049970714993833,7.336025360993517,10.309911387994362,10.798914940998657,14.821950000994548,18.611030165993725,21.849911295998027,22.812917709998146,23.441024997999193,24.797038811993843,26.51003113299521,27.269960023993917,29.64303045899578;1266.7408515900024;None;;;;;;;;;;;;;;;;;;;;;;;;;;;;;;;;;;;;;;;1;001;1;1;2022_Jan_31_1650;VR_setting;2021.2.3;59.98690521890898;
;;;images/MAM11NES.png;images/MAM11BFI.png;0;;;;;;;;;;;;;;;;;;;;;;;;;;;;;;;;;;;;;;;;;;;;;;;;;;;;;;0;0;0;0;;;;;;;;;;;;;1;0;4;0;;;;;;;;;;;;;;;;;;;;;;;;;;;;;;;;;1301.755647856;None;1301.755647856;None;'k','j','l','k','j','l','k','j','l','k','l','l','j';1.7312696790031623,4.207137256998976,6.804231528003584,7.860095700001693,9.55922601900238,11.116292858001543,11.760239155002637,12.572068317997037,14.77223691999825,19.14522333000059,22.05922437999834,22.305235826999706,23.663234223000472;1301.755647856;None;;;;;;;;;;;;;;;;;;;;;;;;;;;;;;;;;;;;;;;1;001;1;1;2022_Jan_31_1650;VR_setting;2021.2.3;59.98690521890898;
;;;images/MAM11BFI.png;images/MAM11NES.png;1;;;;;;;;;;;;;;;;;;;;;;;;;;;;;;;;;;;;;;;;;;;;;;;;;;;;;;0;0;0;0;;;;;;;;;;;;;1;1;5;3;;;;;;;;;;;;;;;;;;;;;;;;;;;;;;;;;1336.7723346359999;None;1336.7723346359999;None;'k','j','l','k','j','l','k','j','k','l';1.5514389660020242,1.8265929830013192,9.630420701003459,12.783449292001023,15.068432928004768,15.524531367998861,15.9784351039998,22.228536187998543,26.053422502001922,28.274529476999305;1336.7723346359999;None;;;;;;;;;;;;;;;;;;;;;;;;;;;;;;;;;;;;;;;1;001;1;1;2022_Jan_31_1650;VR_setting;2021.2.3;59.98690521890898;
;;;images/MAM11NES.png;images/MAM11BFI.png;1;;;;;;;;;;;;;;;;;;;;;;;;;;;;;;;;;;;;;;;;;;;;;;;;;;;;;;0;0;0;0;;;;;;;;;;;;;1;2;6;2;;;;;;;;;;;;;;;;;;;;;;;;;;;;;;;;;1371.7875910049988;None;1371.7875910049988;None;'k','j','l','k','j','l','k','j','k','l','k','j';1.1942827729944838,2.5581679469978553,4.251204763997521,10.18416268999863,11.321276417998888,15.249355886000558,18.95120607499848,19.46825451199402,22.10716795299959,22.73727772499842,26.01628101299866,29.783222436999495;1371.7875910049988;None;;;;;;;;;;;;;;;;;;;;;;;;;;;;;;;;;;;;;;;1;001;1;1;2022_Jan_31_1650;VR_setting;2021.2.3;59.98690521890898;
;;;images/MAM11BFI.png;images/MAM11NES.png;0;;;;;;;;;;;;;;;;;;;;;;;;;;;;;;;;;;;;;;;;;;;;;;;;;;;;;;0;0;0;0;;;;;;;;;;;;;1;3;7;1;;;;;;;;;;;;;;;;;;;;;;;;;;;;;;;;;1406.8051448379993;None;1406.8051448379993;None;'j','l','k','j','l','j','k','l','j','k','l','k','j';2.338593257001776,5.278735708001477,10.008726075000595,11.706624217003991,12.532658089003235,13.375765673001297,16.493624077003915,16.864723438004148,17.355654400002095,23.4346006160049,25.4877420720004,27.40058874800161,28.513765130999673;1406.8051448379993;None;;;;;;;;;;;;;;;;;;;;;;;;;;;;;;;;;;;;;;;1;001;1;1;2022_Jan_31_1650;VR_setting;2021.2.3;59.98690521890898;
;;;images/MAM11BFI.png;images/MAM11NES.png;0;;;;;;;;;;;;;;;;;;;;;;;;;;;;;;;;;;;;;;;;;;;;;;;;;;;;;;0;0;0;0;;;;;;;;;;;;;2;0;8;1;;;;;;;;;;;;;;;;;;;;;;;;;;;;;;;;;1441.8157888130008;None;1441.8157888130008;None;'j','k','j','k','j','l','j','l','k','l';0.9989843879957334,5.364946952002356,6.387972671996977,12.18106622799678,16.650100339997152,16.989993005998258,18.580944096996973,19.82694085699768,26.80309828499594,27.690050539000367;1441.8157888130008;None;;;;;;;;;;;;;;;;;;;;;;;;;;;;;;;;;;;;;;;1;001;1;1;2022_Jan_31_1650;VR_setting;2021.2.3;59.98690521890898;
;;;images/MAM11BFI.png;images/MAM11NES.png;1;;;;;;;;;;;;;;;;;;;;;;;;;;;;;;;;;;;;;;;;;;;;;;;;;;;;;;0;0;0;0;;;;;;;;;;;;;2;1;9;3;;;;;;;;;;;;;;;;;;;;;;;;;;;;;;;;;1476.8319492599985;None;1476.8319492599985;None;'j','k','j','k','j','l','k','j','l','k','k','l';1.1778573310002685,6.94193136299873,8.917944842003635,11.36182899200503,14.001949593002792,14.577849034998508,22.41794817000482,22.594778689999657,23.79785868000181,23.88778365500184,24.06997449100163,24.647804756998084;1476.8319492599985;None;;;;;;;;;;;;;;;;;;;;;;;;;;;;;;;;;;;;;;;1;001;1;1;2022_Jan_31_1650;VR_setting;2021.2.3;59.98690521890898;
;;;images/MAM11NES.png;images/MAM11BFI.png;0;;;;;;;;;;;;;;;;;;;;;;;;;;;;;;;;;;;;;;;;;;;;;;;;;;;;;;0;0;0;0;;;;;;;;;;;;;2;2;10;0;;;;;;;;;;;;;;;;;;;;;;;;;;;;;;;;;1511.855644299998;None;1511.855644299998;None;'l','j','l','k','j','k','l','j','k','l','j','k','l','k','j';1.8422577740057022,3.4102677750051953,8.4002289590062,10.634143507006229,11.831165508003323,12.741249281003547,13.077239135003765,14.457162975006213,14.950232838004013,18.098183268004504,19.66318439400493,20.564160702000663,22.84912059700582,29.00313283900323,29.34808630900079;1511.855644299998;None;;;;;;;;;;;;;;;;;;;;;;;;;;;;;;;;;;;;;;;1;001;1;1;2022_Jan_31_1650;VR_setting;2021.2.3;59.98690521890898;
;;;images/MAM11NES.png;images/MAM11BFI.png;1;;;;;;;;;;;;;;;;;;;;;;;;;;;;;;;;;;;;;;;;;;;;;;;;;;;;;;0;0;0;0;;;;;;;;;;;;;2;3;11;2;;;;;;;;;;;;;;;;;;;;;;;;;;;;;;;;;1546.863121759001;None;1546.863121759001;None;'k','j','l','k','j','l','k','j','l','k','l','j';2.2466423379955813,2.832761206002033,5.7396809790006955,10.076757128997997,10.934793392996653,14.049751651997212,14.711748107998574,18.530614350995165,20.35874692499783,23.211629935001838,24.88567159899685,26.853802222001832;1546.863121759001;None;;;;;;;;;;;;;;;;;;;;;;;;;;;;;;;;;;;;;;;1;001;1;1;2022_Jan_31_1650;VR_setting;2021.2.3;59.98690521890898;
;;;;;;;;;;;;;;;;;;;;;;;;;;;;;;;;;;;;;;;;;;;;;;;;;;;;;;;;;;;0;0;0;0;;;;;;;;;;;;;;;;;;;;;;;;;;;;;;;;;;;;;;;;;;;;;;;;;;;;;;;;;;;;;;;;;;;;;;;;;;;;;;;;;;;;;;;;;;;;;;;1;001;1;1;2022_Jan_31_1650;VR_setting;2021.2.3;59.98690521890898;
;;;;;;;;;;;;;;;;;;;;;;;;;;;;;;;;;;;;;;;;;;;;;;;;;;;;;;;;;;;1;0;1;0;0;0;0;0;;;;;;;;;;;;;;;;;;;;;;;;;;;;;;;;;;;;;;;;;;;;;;;;;;;;;;;;;;;;;;;;;;;1579.8744201020017;None;1579.8744201020017;None;;;;;;;;;;;;;;;;;;;;;1;001;1;1;2022_Jan_31_1650;VR_setting;2021.2.3;59.98690521890898;
;;;images/MAM11NES.png;images/MAM11HAS.png;1;;;;;;;;;;;;;;;;;;;;;;;;;;;;;;;;;;;;;;;;;;;;;;;;;;;;;;1;0;1;0;;;;;0;0;0;3;;;;;;;;;;;;;;;;;;;;;;;;;;;;;;;;;;;;;;;;;1597.362550318001;None;1597.362550318001;None;'j','j','k','l','k','j','k','j','k','l','j';0.9683443910034839,1.1983179809976718,1.939322913000069,7.053255596001691,9.34433600200282,10.363215452998702,12.612216023000656,16.328221345000202,20.292322708002757,20.70434416599892,24.174181962000148;1597.362550318001;None;;;;;;;;;;;;;;;;;;;;;;;;;;;;;;;;;;;;;;;1;001;1;1;2022_Jan_31_1650;VR_setting;2021.2.3;59.98690521890898;
;;;images/MAM11HAS.png;images/MAM11NES.png;0;;;;;;;;;;;;;;;;;;;;;;;;;;;;;;;;;;;;;;;;;;;;;;;;;;;;;;1;0;1;0;;;;;0;1;1;0;;;;;;;;;;;;;;;;;;;;;;;;;;;;;;;;;;;;;;;;;1632.3854931210008;None;1632.3854931210008;None;'j','k','j','k','l','k','j','j';1.2194176539996988,6.675372591998894,7.389307283003291,19.383303750000778,20.66440871100349,24.959374433004996,26.392310448005446,28.393379865003226;1632.3854931210008;None;;;;;;;;;;;;;;;;;;;;;;;;;;;;;;;;;;;;;;;1;001;1;1;2022_Jan_31_1650;VR_setting;2021.2.3;59.98690521890898;
;;;images/MAM11NES.png;images/MAM11HAS.png;0;;;;;;;;;;;;;;;;;;;;;;;;;;;;;;;;;;;;;;;;;;;;;;;;;;;;;;1;0;1;0;;;;;0;2;2;1;;;;;;;;;;;;;;;;;;;;;;;;;;;;;;;;;;;;;;;;;1667.4013381409968;None;1667.4013381409968;None;'j','j','l','j','l','j';1.2334503470046911,1.9343821170041338,7.866454740003974,10.569526644001598,23.10643240200443,27.134401198003616;1667.4013381409968;None;;;;;;;;;;;;;;;;;;;;;;;;;;;;;;;;;;;;;;;1;001;1;1;2022_Jan_31_1650;VR_setting;2021.2.3;59.98690521890898;
;;;images/MAM11HAS.png;images/MAM11NES.png;1;;;;;;;;;;;;;;;;;;;;;;;;;;;;;;;;;;;;;;;;;;;;;;;;;;;;;;1;0;1;0;;;;;0;3;3;2;;;;;;;;;;;;;;;;;;;;;;;;;;;;;;;;;;;;;;;;;1702.412726661998;None;1702.412726661998;None;'j','k','l','k','l','k','l','j','k','j';1.23217566999665,6.93502369899943,9.820163643998967,10.49405510899669,16.477024269996036,17.848073068002122,19.261080099997343,20.538081615995907,26.15316124099627,28.58102204500028;1702.412726661998;None;;;;;;;;;;;;;;;;;;;;;;;;;;;;;;;;;;;;;;;1;001;1;1;2022_Jan_31_1650;VR_setting;2021.2.3;59.98690521890898;
;;;images/MAM11HAS.png;images/MAM11NES.png;1;;;;;;;;;;;;;;;;;;;;;;;;;;;;;;;;;;;;;;;;;;;;;;;;;;;;;;1;0;1;0;;;;;1;0;4;2;;;;;;;;;;;;;;;;;;;;;;;;;;;;;;;;;;;;;;;;;1737.4279844330013;None;1737.4279844330013;None;'j','k','j','l','k','l';1.2567482000013115,12.814890999005002,18.864780597999925,22.254781807001564,22.874879988004977,28.029875564003305;1737.4279844330013;None;;;;;;;;;;;;;;;;;;;;;;;;;;;;;;;;;;;;;;;1;001;1;1;2022_Jan_31_1650;VR_setting;2021.2.3;59.98690521890898;
;;;images/MAM11NES.png;images/MAM11HAS.png;0;;;;;;;;;;;;;;;;;;;;;;;;;;;;;;;;;;;;;;;;;;;;;;;;;;;;;;1;0;1;0;;;;;1;1;5;1;;;;;;;;;;;;;;;;;;;;;;;;;;;;;;;;;;;;;;;;;1772.448561543999;None;1772.448561543999;None;'j','k','j','l','k','l','k';1.9882985479998752,14.204321279998112,20.708195619001344,24.88732414799597,25.829319616001158,27.911303808999946,29.152198361000046;1772.448561543999;None;;;;;;;;;;;;;;;;;;;;;;;;;;;;;;;;;;;;;;;1;001;1;1;2022_Jan_31_1650;VR_setting;2021.2.3;59.98690521890898;
;;;images/MAM11NES.png;images/MAM11HAS.png;1;;;;;;;;;;;;;;;;;;;;;;;;;;;;;;;;;;;;;;;;;;;;;;;;;;;;;;1;0;1;0;;;;;1;2;6;3;;;;;;;;;;;;;;;;;;;;;;;;;;;;;;;;;;;;;;;;;1807.459276196998;None;1807.459276196998;None;'j','k','k','k','l','k','j','k','l','k','l';1.0996134930028347,4.115556160002598,7.339514389001124,8.05744298100035,10.81661057400197,12.52164788400114,14.217536698000913,18.147476004000055,18.605662014997506,19.18859130999772,29.426588772003015;1807.459276196998;None;;;;;;;;;;;;;;;;;;;;;;;;;;;;;;;;;;;;;;;1;001;1;1;2022_Jan_31_1650;VR_setting;2021.2.3;59.98690521890898;
;;;images/MAM11HAS.png;images/MAM11NES.png;0;;;;;;;;;;;;;;;;;;;;;;;;;;;;;;;;;;;;;;;;;;;;;;;;;;;;;;1;0;1;0;;;;;1;3;7;0;;;;;;;;;;;;;;;;;;;;;;;;;;;;;;;;;;;;;;;;;1842.4778226540002;None;1842.4778226540002;None;'j','k','l','k','j','l';1.2560362100048224,9.149931546999142,14.20497151100426,16.635100086998136,20.212080743003753,28.825967636003043;1842.4778226540002;None;;;;;;;;;;;;;;;;;;;;;;;;;;;;;;;;;;;;;;;1;001;1;1;2022_Jan_31_1650;VR_setting;2021.2.3;59.98690521890898;
;;;images/MAM11HAS.png;images/MAM11NES.png;0;;;;;;;;;;;;;;;;;;;;;;;;;;;;;;;;;;;;;;;;;;;;;;;;;;;;;;1;0;1;0;;;;;2;0;8;0;;;;;;;;;;;;;;;;;;;;;;;;;;;;;;;;;;;;;;;;;1877.4930826950003;None;1877.4930826950003;None;'j','k','l','k','j','k','j';3.1028180240027723,10.82167231800122,11.060656870999082,12.449799314999836,15.264794754999457,17.675681225002336,21.12371959599841;1877.4930826950003;None;;;;;;;;;;;;;;;;;;;;;;;;;;;;;;;;;;;;;;;1;001;1;1;2022_Jan_31_1650;VR_setting;2021.2.3;59.98690521890898;
;;;images/MAM11NES.png;images/MAM11HAS.png;1;;;;;;;;;;;;;;;;;;;;;;;;;;;;;;;;;;;;;;;;;;;;;;;;;;;;;;1;0;1;0;;;;;2;1;9;3;;;;;;;;;;;;;;;;;;;;;;;;;;;;;;;;;;;;;;;;;1912.514324276999;None;1912.514324276999;None;'k','l','k','j','k','l','k','j','k','l';1.257434708000801,3.2694452969954,5.454558042001736,7.320584854998742,15.804428479998023,15.995558000999154,18.804572923996602,19.32139928700053,24.79945931000111,26.304537708994758;1912.514324276999;None;;;;;;;;;;;;;;;;;;;;;;;;;;;;;;;;;;;;;;;1;001;1;1;2022_Jan_31_1650;VR_setting;2021.2.3;59.98690521890898;
;;;images/MAM11HAS.png;images/MAM11NES.png;1;;;;;;;;;;;;;;;;;;;;;;;;;;;;;;;;;;;;;;;;;;;;;;;;;;;;;;1;0;1;0;;;;;2;2;10;2;;;;;;;;;;;;;;;;;;;;;;;;;;;;;;;;;;;;;;;;;1947.5294833619992;None;1947.5294833619992;None;'j','k','l','k','l','k','l','k','l';1.6563411680035642,14.615392964005878,15.536252445999708,16.849431259004632,19.392376159004925,19.892379279001034,23.3933079250055,24.582425603002775,29.58140443100274;1947.5294833619992;None;;;;;;;;;;;;;;;;;;;;;;;;;;;;;;;;;;;;;;;1;001;1;1;2022_Jan_31_1650;VR_setting;2021.2.3;59.98690521890898;
;;;images/MAM11NES.png;images/MAM11HAS.png;0;;;;;;;;;;;;;;;;;;;;;;;;;;;;;;;;;;;;;;;;;;;;;;;;;;;;;;1;0;1;0;;;;;2;3;11;1;;;;;;;;;;;;;;;;;;;;;;;;;;;;;;;;;;;;;;;;;1982.5457965120004;None;1982.5457965120004;None;'k','j','l','k','j';1.5539566000006744,6.923967183996865,10.668921570002567,13.404930361997685,14.51700484000321;1982.5457965120004;None;;;;;;;;;;;;;;;;;;;;;;;;;;;;;;;;;;;;;;;1;001;1;1;2022_Jan_31_1650;VR_setting;2021.2.3;59.98690521890898;
;;;;;;;;;;;;;;;;;;;;;;;;;;;;;;;;;;;;;;;;;;;;;;;;;;;;;;;;;;;1;0;1;0;;;;;;;;;;;;;;;;;;;;;;;;;;;;;;;;;;;;;;;;;;;;;;;;;;;;;;;;;;;;;;;;;;;;;;;;;;;;;;;;;;;;;;;;;;;;;;;1;001;1;1;2022_Jan_31_1650;VR_setting;2021.2.3;59.98690521890898;
;;;images/MAM11BFI.png;images/MAM11BFI.png;0;1;;;;;;;;;;;;;;;;;;;;;;;;;;;;;;;;;;;;;;;;;;;;;;;;;;;;;;;;;;;;;;;;;;;;;;;;;0;0;0;0;;;;;;;;;;;;;;;;;;;;;;;;;;;;;;;;;;;;;;;;;;;;;;;;;;;;;;;2015.5533875789988;None;2015.5533875789988;None;2034.7114753310016;None;2034.7114753310016;None;3;4.383825863995298;2034.7114753310016;None;;;;;;;;;1;001;1;1;2022_Jan_31_1650;VR_setting;2021.2.3;59.98690521890898;
;;;images/MAM11NES.png;images/MAM11NES.png;1;3;;;;;;;;;;;;;;;;;;;;;;;;;;;;;;;;;;;;;;;;;;;;;;;;;;;;;;;;;;;;;;;;;;;;;;;;;0;1;1;5;;;;;;;;;;;;;;;;;;;;;;;;;;;;;;;;;;;;;;;;;;;;;;;;;;;;;;;;;;;2041.1294585569995;None;2041.1294585569995;None;2;1.041167775998474;2041.1294585569995;None;;;;;;;;;1;001;1;1;2022_Jan_31_1650;VR_setting;2021.2.3;59.98690521890898;
;;;images/MAM11HAS.png;images/MAM11HAS.png;1;2;;;;;;;;;;;;;;;;;;;;;;;;;;;;;;;;;;;;;;;;;;;;;;;;;;;;;;;;;;;;;;;;;;;;;;;;;0;2;2;4;;;;;;;;;;;;;;;;;;;;;;;;;;;;;;;;;;;;;;;;;;;;;;;;;;;;;;;;;;;2044.2125881269967;None;2044.2125881269967;None;5;2.1109421410001232;2044.2125881269967;None;;;;;;;;;1;001;1;1;2022_Jan_31_1650;VR_setting;2021.2.3;59.98690521890898;
;;;images/MAM11HAS.png;images/MAM11HAS.png;0;2;;;;;;;;;;;;;;;;;;;;;;;;;;;;;;;;;;;;;;;;;;;;;;;;;;;;;;;;;;;;;;;;;;;;;;;;;0;3;3;1;;;;;;;;;;;;;;;;;;;;;;;;;;;;;;;;;;;;;;;;;;;;;;;;;;;;;;;;;;;2048.3603132729986;None;2048.3603132729986;None;5;1.2640554700046778;2048.3603132729986;None;;;;;;;;;1;001;1;1;2022_Jan_31_1650;VR_setting;2021.2.3;59.98690521890898;
;;;images/MAM11BFI.png;images/MAM11BFI.png;1;1;;;;;;;;;;;;;;;;;;;;;;;;;;;;;;;;;;;;;;;;;;;;;;;;;;;;;;;;;;;;;;;;;;;;;;;;;0;4;4;3;;;;;;;;;;;;;;;;;;;;;;;;;;;;;;;;;;;;;;;;;;;;;;;;;;;;;;;;;;;2051.660329266997;None;2051.660329266997;None;3;1.5527789359985036;2051.660329266997;None;;;;;;;;;1;001;1;1;2022_Jan_31_1650;VR_setting;2021.2.3;59.98690521890898;
;;;images/MAM11NES.png;images/MAM11NES.png;0;3;;;;;;;;;;;;;;;;;;;;;;;;;;;;;;;;;;;;;;;;;;;;;;;;;;;;;;;;;;;;;;;;;;;;;;;;;0;5;5;2;;;;;;;;;;;;;;;;;;;;;;;;;;;;;;;;;;;;;;;;;;;;;;;;;;;;;;;;;;;2055.2435746720002;None;2055.2435746720002;None;2;0.9234880400035763;2055.2435746720002;None;;;;;;;;;1;001;1;1;2022_Jan_31_1650;VR_setting;2021.2.3;59.98690521890898;
;;;images/MAM11NES.png;images/MAM11NES.png;1;3;;;;;;;;;;;;;;;;;;;;;;;;;;;;;;;;;;;;;;;;;;;;;;;;;;;;;;;;;;;;;;;;;;;;;;;;;1;0;6;5;;;;;;;;;;;;;;;;;;;;;;;;;;;;;;;;;;;;;;;;;;;;;;;;;;;;;;;;;;;2058.1875398429984;None;2058.1875398429984;None;2;0.9003284909995273;2058.1875398429984;None;;;;;;;;;1;001;1;1;2022_Jan_31_1650;VR_setting;2021.2.3;59.98690521890898;
;;;images/MAM11BFI.png;images/MAM11BFI.png;0;1;;;;;;;;;;;;;;;;;;;;;;;;;;;;;;;;;;;;;;;;;;;;;;;;;;;;;;;;;;;;;;;;;;;;;;;;;1;1;7;0;;;;;;;;;;;;;;;;;;;;;;;;;;;;;;;;;;;;;;;;;;;;;;;;;;;;;;;;;;;2061.1283686660026;None;2061.1283686660026;None;3;1.0934506220000912;2061.1283686660026;None;;;;;;;;;1;001;1;1;2022_Jan_31_1650;VR_setting;2021.2.3;59.98690521890898;
;;;images/MAM11HAS.png;images/MAM11HAS.png;1;2;;;;;;;;;;;;;;;;;;;;;;;;;;;;;;;;;;;;;;;;;;;;;;;;;;;;;;;;;;;;;;;;;;;;;;;;;1;2;8;4;;;;;;;;;;;;;;;;;;;;;;;;;;;;;;;;;;;;;;;;;;;;;;;;;;;;;;;;;;;2064.2599890380006;None;2064.2599890380006;None;5;1.0737156940012937;2064.2599890380006;None;;;;;;;;;1;001;1;1;2022_Jan_31_1650;VR_setting;2021.2.3;59.98690521890898;
;;;images/MAM11HAS.png;images/MAM11HAS.png;0;2;;;;;;;;;;;;;;;;;;;;;;;;;;;;;;;;;;;;;;;;;;;;;;;;;;;;;;;;;;;;;;;;;;;;;;;;;1;3;9;1;;;;;;;;;;;;;;;;;;;;;;;;;;;;;;;;;;;;;;;;;;;;;;;;;;;;;;;;;;;2067.3590350399973;None;2067.3590350399973;None;5;0.795476132996555;2067.3590350399973;None;;;;;;;;;1;001;1;1;2022_Jan_31_1650;VR_setting;2021.2.3;59.98690521890898;
;;;images/MAM11NES.png;images/MAM11NES.png;0;3;;;;;;;;;;;;;;;;;;;;;;;;;;;;;;;;;;;;;;;;;;;;;;;;;;;;;;;;;;;;;;;;;;;;;;;;;1;4;10;2;;;;;;;;;;;;;;;;;;;;;;;;;;;;;;;;;;;;;;;;;;;;;;;;;;;;;;;;;;;2070.1929731260025;None;2070.1929731260025;None;2;0.9674296099983621;2070.1929731260025;None;;;;;;;;;1;001;1;1;2022_Jan_31_1650;VR_setting;2021.2.3;59.98690521890898;
;;;images/MAM11BFI.png;images/MAM11BFI.png;1;1;;;;;;;;;;;;;;;;;;;;;;;;;;;;;;;;;;;;;;;;;;;;;;;;;;;;;;;;;;;;;;;;;;;;;;;;;1;5;11;3;;;;;;;;;;;;;;;;;;;;;;;;;;;;;;;;;;;;;;;;;;;;;;;;;;;;;;;;;;;2073.196411044002;None;2073.196411044002;None;3;0.8566978300004848;2073.196411044002;None;;;;;;;;;1;001;1;1;2022_Jan_31_1650;VR_setting;2021.2.3;59.98690521890898;
;;;images/MAM11HAS.png;images/MAM11HAS.png;1;2;;;;;;;;;;;;;;;;;;;;;;;;;;;;;;;;;;;;;;;;;;;;;;;;;;;;;;;;;;;;;;;;;;;;;;;;;;;;;0;0;0;4;;;;;;;;;;;;;;;;;;;;;;;;;;;;;;;;;;;;;;;;;;;;;;;;;;;;;;;2089.525384982;None;2089.525384982;None;7;1.02014723100001;2089.525384982;None;2074.087021731997;None;2074.087021731997;None;;;;;1;001;1;1;2022_Jan_31_1650;VR_setting;2021.2.3;59.98690521890898;
;;;images/MAM11HAS.png;images/MAM11HAS.png;0;2;;;;;;;;;;;;;;;;;;;;;;;;;;;;;;;;;;;;;;;;;;;;;;;;;;;;;;;;;;;;;;;;;;;;;;;;;;;;;0;1;1;1;;;;;;;;;;;;;;;;;;;;;;;;;;;;;;;;;;;;;;;;;;;;;;;;;;;;;;;2092.574464375997;None;2092.574464375997;None;7;0.5050569420054671;2092.574464375997;None;;;;;;;;;1;001;1;1;2022_Jan_31_1650;VR_setting;2021.2.3;59.98690521890898;
;;;images/MAM11BFI.png;images/MAM11BFI.png;1;1;;;;;;;;;;;;;;;;;;;;;;;;;;;;;;;;;;;;;;;;;;;;;;;;;;;;;;;;;;;;;;;;;;;;;;;;;;;;;0;2;2;3;;;;;;;;;;;;;;;;;;;;;;;;;;;;;;;;;;;;;;;;;;;;;;;;;;;;;;;2095.1098701989977;None;2095.1098701989977;None;4;0.9185041160017136;2095.1098701989977;None;;;;;;;;;1;001;1;1;2022_Jan_31_1650;VR_setting;2021.2.3;59.98690521890898;
;;;images/MAM11BFI.png;images/MAM11BFI.png;0;1;;;;;;;;;;;;;;;;;;;;;;;;;;;;;;;;;;;;;;;;;;;;;;;;;;;;;;;;;;;;;;;;;;;;;;;;;;;;;0;3;3;0;;;;;;;;;;;;;;;;;;;;;;;;;;;;;;;;;;;;;;;;;;;;;;;;;;;;;;;2098.059779411;None;2098.059779411;None;4;0.7914172329983558;2098.059779411;None;;;;;;;;;1;001;1;1;2022_Jan_31_1650;VR_setting;2021.2.3;59.98690521890898;
;;;images/MAM11NES.png;images/MAM11NES.png;1;3;;;;;;;;;;;;;;;;;;;;;;;;;;;;;;;;;;;;;;;;;;;;;;;;;;;;;;;;;;;;;;;;;;;;;;;;;;;;;0;4;4;5;;;;;;;;;;;;;;;;;;;;;;;;;;;;;;;;;;;;;;;;;;;;;;;;;;;;;;;2100.8938701860025;None;2100.8938701860025;None;4;1.49326309600292;2100.8938701860025;None;;;;;;;;;1;001;1;1;2022_Jan_31_1650;VR_setting;2021.2.3;59.98690521890898;
;;;images/MAM11NES.png;images/MAM11NES.png;0;3;;;;;;;;;;;;;;;;;;;;;;;;;;;;;;;;;;;;;;;;;;;;;;;;;;;;;;;;;;;;;;;;;;;;;;;;;;;;;0;5;5;2;;;;;;;;;;;;;;;;;;;;;;;;;;;;;;;;;;;;;;;;;;;;;;;;;;;;;;;2104.4171708529975;None;2104.4171708529975;None;4;0.6657972589964629;2104.4171708529975;None;;;;;;;;;1;001;1;1;2022_Jan_31_1650;VR_setting;2021.2.3;59.98690521890898;
;;;images/MAM11BFI.png;images/MAM11BFI.png;1;1;;;;;;;;;;;;;;;;;;;;;;;;;;;;;;;;;;;;;;;;;;;;;;;;;;;;;;;;;;;;;;;;;;;;;;;;;;;;;1;0;6;3;;;;;;;;;;;;;;;;;;;;;;;;;;;;;;;;;;;;;;;;;;;;;;;;;;;;;;;2107.1104858440012;None;2107.1104858440012;None;5;1.026356690999819;2107.1104858440012;None;;;;;;;;;1;001;1;1;2022_Jan_31_1650;VR_setting;2021.2.3;59.98690521890898;
;;;images/MAM11HAS.png;images/MAM11HAS.png;1;2;;;;;;;;;;;;;;;;;;;;;;;;;;;;;;;;;;;;;;;;;;;;;;;;;;;;;;;;;;;;;;;;;;;;;;;;;;;;;1;1;7;4;;;;;;;;;;;;;;;;;;;;;;;;;;;;;;;;;;;;;;;;;;;;;;;;;;;;;;;2110.1751261710015;None;2110.1751261710015;None;7;0.7025576380037819;2110.1751261710015;None;;;;;;;;;1;001;1;1;2022_Jan_31_1650;VR_setting;2021.2.3;59.98690521890898;
;;;images/MAM11NES.png;images/MAM11NES.png;1;3;;;;;;;;;;;;;;;;;;;;;;;;;;;;;;;;;;;;;;;;;;;;;;;;;;;;;;;;;;;;;;;;;;;;;;;;;;;;;1;2;8;5;;;;;;;;;;;;;;;;;;;;;;;;;;;;;;;;;;;;;;;;;;;;;;;;;;;;;;;2112.9092585519975;None;2112.9092585519975;None;4;0.6413902400017832;2112.9092585519975;None;;;;;;;;;1;001;1;1;2022_Jan_31_1650;VR_setting;2021.2.3;59.98690521890898;
;;;images/MAM11NES.png;images/MAM11NES.png;0;3;;;;;;;;;;;;;;;;;;;;;;;;;;;;;;;;;;;;;;;;;;;;;;;;;;;;;;;;;;;;;;;;;;;;;;;;;;;;;1;3;9;2;;;;;;;;;;;;;;;;;;;;;;;;;;;;;;;;;;;;;;;;;;;;;;;;;;;;;;;2115.5701707769986;None;2115.5701707769986;None;4;1.0393500339996535;2115.5701707769986;None;;;;;;;;;1;001;1;1;2022_Jan_31_1650;VR_setting;2021.2.3;59.98690521890898;
;;;images/MAM11HAS.png;images/MAM11HAS.png;0;2;;;;;;;;;;;;;;;;;;;;;;;;;;;;;;;;;;;;;;;;;;;;;;;;;;;;;;;;;;;;;;;;;;;;;;;;;;;;;1;4;10;1;;;;;;;;;;;;;;;;;;;;;;;;;;;;;;;;;;;;;;;;;;;;;;;;;;;;;;;2118.6443349260007;None;2118.6443349260007;None;4;0.6450183510023635;2118.6443349260007;None;;;;;;;;;1;001;1;1;2022_Jan_31_1650;VR_setting;2021.2.3;59.98690521890898;
;;;images/MAM11BFI.png;images/MAM11BFI.png;0;1;;;;;;;;;;;;;;;;;;;;;;;;;;;;;;;;;;;;;;;;;;;;;;;;;;;;;;;;;;;;;;;;;;;;;;;;;;;;;1;5;11;0;;;;;;;;;;;;;;;;;;;;;;;;;;;;;;;;;;;;;;;;;;;;;;;;;;;;;;;2121.3259689390034;None;2121.3259689390034;None;5;3.8896544910021476;2121.3259689390034;None;;;;;;;;;1;001;1;1;2022_Jan_31_1650;VR_setting;2021.2.3;59.98690521890898;
;;;;;;;;;;;;;;;;;;;;;;;;;;;;;;;;;;;;;;;;;;;;;;;;;;;;;;;;;;;;;;;;;;;;;;;;;;;;;;;;;;;;;;;;;;;;;;;;;;;;;;;;;;;;;;;;;;;;;;;;;;;;;;;;;;;;;;;;;;;;;;;;;;;;;;;;;2125.2331369500025;None;2125.2331369500025;None;;;;;;;;;
