audio;stim_lev;vol;left;right;stim;Hz;categorie;training_loop.thisRepN;training_loop.thisTrialN;training_loop.thisN;training_loop.thisIndex;stim_loop.thisRepN;stim_loop.thisTrialN;stim_loop.thisN;stim_loop.thisIndex;stim_test.thisRepN;stim_test.thisTrialN;stim_test.thisN;stim_test.thisIndex;stim_neutral_loop.thisRepN;stim_neutral_loop.thisTrialN;stim_neutral_loop.thisN;stim_neutral_loop.thisIndex;stim_neutral31_loop.thisRepN;stim_neutral31_loop.thisTrialN;stim_neutral31_loop.thisN;stim_neutral31_loop.thisIndex;conterbalencement.thisRepN;conterbalencement.thisTrialN;conterbalencement.thisN;conterbalencement.thisIndex;istr_nh_loop.thisRepN;istr_nh_loop.thisTrialN;istr_nh_loop.thisN;istr_nh_loop.thisIndex;nh_loop_trials.thisRepN;nh_loop_trials.thisTrialN;nh_loop_trials.thisN;nh_loop_trials.thisIndex;istr_nb_loop.thisRepN;istr_nb_loop.thisTrialN;istr_nb_loop.thisN;istr_nb_loop.thisIndex;nb_loop_trials.thisRepN;nb_loop_trials.thisTrialN;nb_loop_trials.thisN;nb_loop_trials.thisIndex;conterbalencement2.thisRepN;conterbalencement2.thisTrialN;conterbalencement2.thisN;conterbalencement2.thisIndex;istr_hn_loop.thisRepN;istr_hn_loop.thisTrialN;istr_hn_loop.thisN;istr_hn_loop.thisIndex;hn_loop_trials.thisRepN;hn_loop_trials.thisTrialN;hn_loop_trials.thisN;hn_loop_trials.thisIndex;istr_bn_loop.thisRepN;istr_bn_loop.thisTrialN;istr_bn_loop.thisN;istr_bn_loop.thisIndex;bn_loop_trials.thisRepN;bn_loop_trials.thisTrialN;bn_loop_trials.thisN;bn_loop_trials.thisIndex;arousal_loop.thisRepN;arousal_loop.thisTrialN;arousal_loop.thisN;arousal_loop.thisIndex;valence_loop.thisRepN;valence_loop.thisTrialN;valence_loop.thisN;valence_loop.thisIndex;sound_1.started;sound_1.stopped;txt_wait.started;txt_wait.stopped;amplitude_5hz;sound_2.started;sound_2.stopped;amplitude_31hz;sound_6.started;sound_6.stopped;img_nh_right.started;img_nh_right.stopped;img_nh_left.started;img_nh_left.stopped;img_trial_right.started;img_trial_right.stopped;img_trial_left.started;img_trial_left.stopped;resp.keys;resp.rt;resp.started;resp.stopped;sound_3.started;sound_3.stopped;img_nb_right.started;img_nb_right.stopped;img_nb_left.started;img_nb_left.stopped;half_break_left.started;half_break_left.stopped;kb_half_break.keys;kb_half_break.rt;kb_half_break.started;kb_half_break.stopped;img_hn_right.started;img_hn_right.stopped;img_hn_left.started;img_hn_left.stopped;img_bn_right.started;img_bn_right.stopped;img_bn_left.started;img_bn_left.stopped;img_arousal_right.started;img_arousal_right.stopped;img_arousal_left.started;img_arousal_left.stopped;img_val_right.started;img_val_right.stopped;img_val_left.started;img_val_left.stopped;kb_valuation.keys;kb_valuation.rt;kb_valuation.started;kb_valuation.stopped;sound_4.started;sound_4.stopped;img_valence_right.started;img_valence_right.stopped;img_valence_left.started;img_valence_left.stopped;txt_end_right.started;txt_end_right.stopped;txt_end_left.started;txt_end_left.stopped;participant;session;practice;stim_setting;date;expName;psychopyVersion;frameRate;
audio/tri_5Hz_-6dBFS_31s.wav;high;1;;;;;;;;;;0;0;0;0;0;0;0;0;;;;;;;;;;;;;;;;;;;;;;;;;;;;;;;;;;;;;;;;;;;;;;;;;;;;;;;;;32.91928985250052;None;42.91918579800404;None;;;;;;;;;;;;;;;;;;;;;;;;;;;;;;;;;;;;;;;;;;;;;;;;;;;;;;;;;;;;;02;001;0;1;2022_Mar_22_1220;VR_setting;2021.2.3;59.97692052109131;
audio/tri_5Hz_-6dBFS_31s.wav;medium;0.55;;;;;;;;;;0;0;0;0;0;1;1;1;;;;;;;;;;;;;;;;;;;;;;;;;;;;;;;;;;;;;;;;;;;;;;;;;;;;;;;;;44.935931333998454;None;54.93578799500392;None;;;;;;;;;;;;;;;;;;;;;;;;;;;;;;;;;;;;;;;;;;;;;;;;;;;;;;;;;;;;;02;001;0;1;2022_Mar_22_1220;VR_setting;2021.2.3;59.97692052109131;
audio/tri_5Hz_-6dBFS_31s.wav;low;0.1;;;;;;;;;;0;0;0;0;0;2;2;2;;;;;;;;;;;;;;;;;;;;;;;;;;;;;;;;;;;;;;;;;;;;;;;;;;;;;;;;;56.952446468999554;None;66.95232336800109;None;;;;;;;;;;;;;;;;;;;;;;;;;;;;;;;;;;;;;;;;;;;;;;;;;;;;;;;;;;;;;02;001;0;1;2022_Mar_22_1220;VR_setting;2021.2.3;59.97692052109131;
audio/tri_31Hz_-6dBFS_31s.wav;high;1;;;;;;;;;;0;0;0;0;0;3;3;3;;;;;;;;;;;;;;;;;;;;;;;;;;;;;;;;;;;;;;;;;;;;;;;;;;;;;;;;;68.96890202199864;None;78.96864584799914;None;;;;;;;;;;;;;;;;;;;;;;;;;;;;;;;;;;;;;;;;;;;;;;;;;;;;;;;;;;;;;02;001;0;1;2022_Mar_22_1220;VR_setting;2021.2.3;59.97692052109131;
audio/tri_31Hz_-6dBFS_31s.wav;medium;0.55;;;;;;;;;;0;0;0;0;0;4;4;4;;;;;;;;;;;;;;;;;;;;;;;;;;;;;;;;;;;;;;;;;;;;;;;;;;;;;;;;;80.98527303699956;None;90.98527925300004;None;;;;;;;;;;;;;;;;;;;;;;;;;;;;;;;;;;;;;;;;;;;;;;;;;;;;;;;;;;;;;02;001;0;1;2022_Mar_22_1220;VR_setting;2021.2.3;59.97692052109131;
audio/tri_31Hz_-6dBFS_31s.wav;low;0.1;;;;;;;;;;0;0;0;0;0;5;5;5;;;;;;;;;;;;;;;;;;;;;;;;;;;;;;;;;;;;;;;;;;;;;;;;;;;;;;;;;93.00193378600233;None;103.00170478200016;None;;;;;;;;;;;;;;;;;;;;;;;;;;;;;;;;;;;;;;;;;;;;;;;;;;;;;;;;;;;;;02;001;0;1;2022_Mar_22_1220;VR_setting;2021.2.3;59.97692052109131;
;;;;;;;;;;;;0;0;0;0;;;;;0;0;0;0;;;;;;;;;;;;;;;;;;;;;;;;;;;;;;;;;;;;;;;;;;;;;;;;;;;;;;;;;0.9500000000000001;143.35137925400196;None;;;;;;;;;;;;;;;;;;;;;;;;;;;;;;;;;;;;;;;;;;;;;;;;;;;;;;;;;;02;001;0;1;2022_Mar_22_1220;VR_setting;2021.2.3;59.97692052109131;
;;;;;;;;;;;;0;0;0;0;;;;;1;0;1;0;;;;;;;;;;;;;;;;;;;;;;;;;;;;;;;;;;;;;;;;;;;;;;;;;;;;;;;;;1;145.3346403999996;None;;;;;;;;;;;;;;;;;;;;;;;;;;;;;;;;;;;;;;;;;;;;;;;;;;;;;;;;;;02;001;0;1;2022_Mar_22_1220;VR_setting;2021.2.3;59.97692052109131;
;;;;;;;;;;;;0;0;0;0;;;;;2;0;2;0;;;;;;;;;;;;;;;;;;;;;;;;;;;;;;;;;;;;;;;;;;;;;;;;;;;;;;;;;1;147.51786992499837;None;;;;;;;;;;;;;;;;;;;;;;;;;;;;;;;;;;;;;;;;;;;;;;;;;;;;;;;;;;02;001;0;1;2022_Mar_22_1220;VR_setting;2021.2.3;59.97692052109131;
;;;;;;;;;;;;0;0;0;0;;;;;3;0;3;0;;;;;;;;;;;;;;;;;;;;;;;;;;;;;;;;;;;;;;;;;;;;;;;;;;;;;;;;;1;148.30098260099766;None;;;;;;;;;;;;;;;;;;;;;;;;;;;;;;;;;;;;;;;;;;;;;;;;;;;;;;;;;;02;001;0;1;2022_Mar_22_1220;VR_setting;2021.2.3;59.97692052109131;
;;;;;;;;;;;;0;0;0;0;;;;;4;0;4;0;;;;;;;;;;;;;;;;;;;;;;;;;;;;;;;;;;;;;;;;;;;;;;;;;;;;;;;;;1;151.83424539499828;None;;;;;;;;;;;;;;;;;;;;;;;;;;;;;;;;;;;;;;;;;;;;;;;;;;;;;;;;;;02;001;0;1;2022_Mar_22_1220;VR_setting;2021.2.3;59.97692052109131;
;;;;;;;;;;;;0;0;0;0;;;;;5;0;5;0;;;;;;;;;;;;;;;;;;;;;;;;;;;;;;;;;;;;;;;;;;;;;;;;;;;;;;;;;1;152.45092957400192;None;;;;;;;;;;;;;;;;;;;;;;;;;;;;;;;;;;;;;;;;;;;;;;;;;;;;;;;;;;02;001;0;1;2022_Mar_22_1220;VR_setting;2021.2.3;59.97692052109131;
;;;;;;;;;;;;0;0;0;0;;;;;6;0;6;0;;;;;;;;;;;;;;;;;;;;;;;;;;;;;;;;;;;;;;;;;;;;;;;;;;;;;;;;;1;153.56767944700113;None;;;;;;;;;;;;;;;;;;;;;;;;;;;;;;;;;;;;;;;;;;;;;;;;;;;;;;;;;;02;001;0;1;2022_Mar_22_1220;VR_setting;2021.2.3;59.97692052109131;
;;;;;;;;;;;;0;0;0;0;;;;;7;0;7;0;;;;;;;;;;;;;;;;;;;;;;;;;;;;;;;;;;;;;;;;;;;;;;;;;;;;;;;;;0.95;154.43439183200388;None;;;;;;;;;;;;;;;;;;;;;;;;;;;;;;;;;;;;;;;;;;;;;;;;;;;;;;;;;;02;001;0;1;2022_Mar_22_1220;VR_setting;2021.2.3;59.97692052109131;
;;;;;;;;;;;;0;0;0;0;;;;;8;0;8;0;;;;;;;;;;;;;;;;;;;;;;;;;;;;;;;;;;;;;;;;;;;;;;;;;;;;;;;;;1;157.4008658420018;None;;;;;;;;;;;;;;;;;;;;;;;;;;;;;;;;;;;;;;;;;;;;;;;;;;;;;;;;;;02;001;0;1;2022_Mar_22_1220;VR_setting;2021.2.3;59.97692052109131;
;;;;;;;;;;;;0;0;0;0;;;;;9;0;9;0;;;;;;;;;;;;;;;;;;;;;;;;;;;;;;;;;;;;;;;;;;;;;;;;;;;;;;;;;1;158.7841966270018;None;;;;;;;;;;;;;;;;;;;;;;;;;;;;;;;;;;;;;;;;;;;;;;;;;;;;;;;;;;02;001;0;1;2022_Mar_22_1220;VR_setting;2021.2.3;59.97692052109131;
;;;;;;;;;;;;0;0;0;0;;;;;10;0;10;0;;;;;;;;;;;;;;;;;;;;;;;;;;;;;;;;;;;;;;;;;;;;;;;;;;;;;;;;;1;159.13413553100253;None;;;;;;;;;;;;;;;;;;;;;;;;;;;;;;;;;;;;;;;;;;;;;;;;;;;;;;;;;;02;001;0;1;2022_Mar_22_1220;VR_setting;2021.2.3;59.97692052109131;
;;;;;;;;;;;;0;0;0;0;;;;;11;0;11;0;;;;;;;;;;;;;;;;;;;;;;;;;;;;;;;;;;;;;;;;;;;;;;;;;;;;;;;;;1;159.43416305799764;None;;;;;;;;;;;;;;;;;;;;;;;;;;;;;;;;;;;;;;;;;;;;;;;;;;;;;;;;;;02;001;0;1;2022_Mar_22_1220;VR_setting;2021.2.3;59.97692052109131;
;;;;;;;;;;;;0;0;0;0;;;;;12;0;12;0;;;;;;;;;;;;;;;;;;;;;;;;;;;;;;;;;;;;;;;;;;;;;;;;;;;;;;;;;1;159.71760218800335;None;;;;;;;;;;;;;;;;;;;;;;;;;;;;;;;;;;;;;;;;;;;;;;;;;;;;;;;;;;02;001;0;1;2022_Mar_22_1220;VR_setting;2021.2.3;59.97692052109131;
;;;;;;;;;;;;0;0;0;0;;;;;13;0;13;0;;;;;;;;;;;;;;;;;;;;;;;;;;;;;;;;;;;;;;;;;;;;;;;;;;;;;;;;;1;162.43423061700304;None;;;;;;;;;;;;;;;;;;;;;;;;;;;;;;;;;;;;;;;;;;;;;;;;;;;;;;;;;;02;001;0;1;2022_Mar_22_1220;VR_setting;2021.2.3;59.97692052109131;
;;;;;;;;;;;;0;0;0;0;;;;;14;0;14;0;;;;;;;;;;;;;;;;;;;;;;;;;;;;;;;;;;;;;;;;;;;;;;;;;;;;;;;;;1;163.40085035000374;None;;;;;;;;;;;;;;;;;;;;;;;;;;;;;;;;;;;;;;;;;;;;;;;;;;;;;;;;;;02;001;0;1;2022_Mar_22_1220;VR_setting;2021.2.3;59.97692052109131;
;;;;;;;;;;;;0;0;0;0;;;;;15;0;15;0;;;;;;;;;;;;;;;;;;;;;;;;;;;;;;;;;;;;;;;;;;;;;;;;;;;;;;;;;1;163.66757711600366;None;;;;;;;;;;;;;;;;;;;;;;;;;;;;;;;;;;;;;;;;;;;;;;;;;;;;;;;;;;02;001;0;1;2022_Mar_22_1220;VR_setting;2021.2.3;59.97692052109131;
;;;;;;;;;;;;0;0;0;0;;;;;16;0;16;0;;;;;;;;;;;;;;;;;;;;;;;;;;;;;;;;;;;;;;;;;;;;;;;;;;;;;;;;;1;166.05082623299967;None;;;;;;;;;;;;;;;;;;;;;;;;;;;;;;;;;;;;;;;;;;;;;;;;;;;;;;;;;;02;001;0;1;2022_Mar_22_1220;VR_setting;2021.2.3;59.97692052109131;
;;;;;;;;;;;;0;0;0;0;;;;;17;0;17;0;;;;;;;;;;;;;;;;;;;;;;;;;;;;;;;;;;;;;;;;;;;;;;;;;;;;;;;;;1;168.13397166299836;None;;;;;;;;;;;;;;;;;;;;;;;;;;;;;;;;;;;;;;;;;;;;;;;;;;;;;;;;;;02;001;0;1;2022_Mar_22_1220;VR_setting;2021.2.3;59.97692052109131;
;;;;;;;;;;;;0;0;0;0;;;;;18;0;18;0;;;;;;;;;;;;;;;;;;;;;;;;;;;;;;;;;;;;;;;;;;;;;;;;;;;;;;;;;1;168.4008467830019;None;;;;;;;;;;;;;;;;;;;;;;;;;;;;;;;;;;;;;;;;;;;;;;;;;;;;;;;;;;02;001;0;1;2022_Mar_22_1220;VR_setting;2021.2.3;59.97692052109131;
;;;;;;;;;;;;0;0;0;0;;;;;19;0;19;0;;;;;;;;;;;;;;;;;;;;;;;;;;;;;;;;;;;;;;;;;;;;;;;;;;;;;;;;;1;171.6673618250017;None;;;;;;;;;;;;;;;;;;;;;;;;;;;;;;;;;;;;;;;;;;;;;;;;;;;;;;;;;;02;001;0;1;2022_Mar_22_1220;VR_setting;2021.2.3;59.97692052109131;
;;;;;;;;;;;;0;0;0;0;;;;;20;0;20;0;;;;;;;;;;;;;;;;;;;;;;;;;;;;;;;;;;;;;;;;;;;;;;;;;;;;;;;;;1;177.28408893600425;None;;;;;;;;;;;;;;;;;;;;;;;;;;;;;;;;;;;;;;;;;;;;;;;;;;;;;;;;;;02;001;0;1;2022_Mar_22_1220;VR_setting;2021.2.3;59.97692052109131;
;;;;;;;;;;;;0;0;0;0;;;;;21;0;21;0;;;;;;;;;;;;;;;;;;;;;;;;;;;;;;;;;;;;;;;;;;;;;;;;;;;;;;;;;1;179.11733103799924;None;;;;;;;;;;;;;;;;;;;;;;;;;;;;;;;;;;;;;;;;;;;;;;;;;;;;;;;;;;02;001;0;1;2022_Mar_22_1220;VR_setting;2021.2.3;59.97692052109131;
;;;;;;;;;;;;0;0;0;0;;;;;22;0;22;0;;;;;;;;;;;;;;;;;;;;;;;;;;;;;;;;;;;;;;;;;;;;;;;;;;;;;;;;;1;179.75055620500206;None;;;;;;;;;;;;;;;;;;;;;;;;;;;;;;;;;;;;;;;;;;;;;;;;;;;;;;;;;;02;001;0;1;2022_Mar_22_1220;VR_setting;2021.2.3;59.97692052109131;
;;;;;;;;;;;;0;0;0;0;;;;;23;0;23;0;;;;;;;;;;;;;;;;;;;;;;;;;;;;;;;;;;;;;;;;;;;;;;;;;;;;;;;;;1;180.33392521200147;None;;;;;;;;;;;;;;;;;;;;;;;;;;;;;;;;;;;;;;;;;;;;;;;;;;;;;;;;;;02;001;0;1;2022_Mar_22_1220;VR_setting;2021.2.3;59.97692052109131;
;;;;;;;;;;;;0;0;0;0;;;;;24;0;24;0;;;;;;;;;;;;;;;;;;;;;;;;;;;;;;;;;;;;;;;;;;;;;;;;;;;;;;;;;1;181.16722941200277;None;;;;;;;;;;;;;;;;;;;;;;;;;;;;;;;;;;;;;;;;;;;;;;;;;;;;;;;;;;02;001;0;1;2022_Mar_22_1220;VR_setting;2021.2.3;59.97692052109131;
;;;;;;;;;;;;0;0;0;0;;;;;25;0;25;0;;;;;;;;;;;;;;;;;;;;;;;;;;;;;;;;;;;;;;;;;;;;;;;;;;;;;;;;;1;181.41712675700109;None;;;;;;;;;;;;;;;;;;;;;;;;;;;;;;;;;;;;;;;;;;;;;;;;;;;;;;;;;;02;001;0;1;2022_Mar_22_1220;VR_setting;2021.2.3;59.97692052109131;
;;;;;;;;;;;;0;0;0;0;;;;;26;0;26;0;;;;;;;;;;;;;;;;;;;;;;;;;;;;;;;;;;;;;;;;;;;;;;;;;;;;;;;;;1;182.2673430509996;None;;;;;;;;;;;;;;;;;;;;;;;;;;;;;;;;;;;;;;;;;;;;;;;;;;;;;;;;;;02;001;0;1;2022_Mar_22_1220;VR_setting;2021.2.3;59.97692052109131;
;;;;;;;;;;;;0;0;0;0;;;;;27;0;27;0;;;;;;;;;;;;;;;;;;;;;;;;;;;;;;;;;;;;;;;;;;;;;;;;;;;;;;;;;1;185.8171495410017;None;;;;;;;;;;;;;;;;;;;;;;;;;;;;;;;;;;;;;;;;;;;;;;;;;;;;;;;;;;02;001;0;1;2022_Mar_22_1220;VR_setting;2021.2.3;59.97692052109131;
;;;;;;;;;;;;0;0;0;0;;;;;28;0;28;0;;;;;;;;;;;;;;;;;;;;;;;;;;;;;;;;;;;;;;;;;;;;;;;;;;;;;;;;;1;186.11727289000117;None;;;;;;;;;;;;;;;;;;;;;;;;;;;;;;;;;;;;;;;;;;;;;;;;;;;;;;;;;;02;001;0;1;2022_Mar_22_1220;VR_setting;2021.2.3;59.97692052109131;
;;;;;;;;;;;;0;0;0;0;;;;;29;0;29;0;;;;;;;;;;;;;;;;;;;;;;;;;;;;;;;;;;;;;;;;;;;;;;;;;;;;;;;;;1;186.3171726350003;None;;;;;;;;;;;;;;;;;;;;;;;;;;;;;;;;;;;;;;;;;;;;;;;;;;;;;;;;;;02;001;0;1;2022_Mar_22_1220;VR_setting;2021.2.3;59.97692052109131;
;;;;;;;;;;;;0;0;0;0;;;;;30;0;30;0;;;;;;;;;;;;;;;;;;;;;;;;;;;;;;;;;;;;;;;;;;;;;;;;;;;;;;;;;1;186.53400087300105;None;;;;;;;;;;;;;;;;;;;;;;;;;;;;;;;;;;;;;;;;;;;;;;;;;;;;;;;;;;02;001;0;1;2022_Mar_22_1220;VR_setting;2021.2.3;59.97692052109131;
;;;;;;;;;;;;0;0;0;0;;;;;31;0;31;0;;;;;;;;;;;;;;;;;;;;;;;;;;;;;;;;;;;;;;;;;;;;;;;;;;;;;;;;;1;186.7752813700019;None;;;;;;;;;;;;;;;;;;;;;;;;;;;;;;;;;;;;;;;;;;;;;;;;;;;;;;;;;;02;001;0;1;2022_Mar_22_1220;VR_setting;2021.2.3;59.97692052109131;
;;;;;;;;;;;;0;0;0;0;;;;;32;0;32;0;;;;;;;;;;;;;;;;;;;;;;;;;;;;;;;;;;;;;;;;;;;;;;;;;;;;;;;;;1;189.50054129299969;None;;;;;;;;;;;;;;;;;;;;;;;;;;;;;;;;;;;;;;;;;;;;;;;;;;;;;;;;;;02;001;0;1;2022_Mar_22_1220;VR_setting;2021.2.3;59.97692052109131;
;;;;;;;;;;;;0;0;0;0;;;;;;;;;0;0;0;0;;;;;;;;;;;;;;;;;;;;;;;;;;;;;;;;;;;;;;;;;;;;;;;;;;;;;;;;0.85;194.60045832099712;None;;;;;;;;;;;;;;;;;;;;;;;;;;;;;;;;;;;;;;;;;;;;;;;;;;;;;;;02;001;0;1;2022_Mar_22_1220;VR_setting;2021.2.3;59.97692052109131;
;;;;;;;;;;;;0;0;0;0;;;;;;;;;1;0;1;0;;;;;;;;;;;;;;;;;;;;;;;;;;;;;;;;;;;;;;;;;;;;;;;;;;;;;;;;0.7999999999999999;196.41712218000174;None;;;;;;;;;;;;;;;;;;;;;;;;;;;;;;;;;;;;;;;;;;;;;;;;;;;;;;;02;001;0;1;2022_Mar_22_1220;VR_setting;2021.2.3;59.97692052109131;
;;;;;;;;;;;;0;0;0;0;;;;;;;;;2;0;2;0;;;;;;;;;;;;;;;;;;;;;;;;;;;;;;;;;;;;;;;;;;;;;;;;;;;;;;;;0.85;200.46706299099895;None;;;;;;;;;;;;;;;;;;;;;;;;;;;;;;;;;;;;;;;;;;;;;;;;;;;;;;;02;001;0;1;2022_Mar_22_1220;VR_setting;2021.2.3;59.97692052109131;
;;;;;;;;;;;;0;0;0;0;;;;;;;;;3;0;3;0;;;;;;;;;;;;;;;;;;;;;;;;;;;;;;;;;;;;;;;;;;;;;;;;;;;;;;;;0.85;202.81699675099952;None;;;;;;;;;;;;;;;;;;;;;;;;;;;;;;;;;;;;;;;;;;;;;;;;;;;;;;;02;001;0;1;2022_Mar_22_1220;VR_setting;2021.2.3;59.97692052109131;
;;;;;;;;;;;;0;0;0;0;;;;;;;;;;;;;;;;;;;;;;;;;;;;;;;;;;;;;;;;;;;;;;;;;;;;;;;;;;;;;;;;;;;;;;;;;;;;;;;;;;;;;;;;;;;;;;;;;;;;;;;;;;;;;;;;;;;;;;;;;;;;;02;001;0;1;2022_Mar_22_1220;VR_setting;2021.2.3;59.97692052109131;
;;;;;;;;;;;;;;;;;;;;;;;;;;;;0;0;0;0;0;0;0;0;;;;;;;;;;;;;;;;;;;;;;;;;;;;;;;;;;;;;;;;;;;;;;;;;;;226.56980901600036;None;226.56980901600036;None;;;;;;;;;;;;;;;;;;;;;;;;;;;;;;;;;;;;;;;;;;;;;;;;;;;02;001;0;1;2022_Mar_22_1220;VR_setting;2021.2.3;59.97692052109131;
audio/tri_5Hz_-6dBFS_31s.wav;;;images/MAM11NES.png;images/MAM11HAS.png;1;5;;;;;;;;;;;;;;;;;;;;;;0;0;0;0;;;;;0;0;0;1;;;;;;;;;;;;;;;;;;;;;;;;;;;;;;;;;;;;;;;;;;;;;;;;;;;250.10786030600138;None;250.10786030600138;None;"['l', 'l', 'l', 'k']";"[1.057177609000064, 7.3843448819970945, 15.414300633994571, 25.364275371997792]";250.10786030600138;None;250.09958162850015;280.099449841;;;;;;;;;;;;;;;;;;;;;;;;;;;;;;;;;;;;;;;;;02;001;0;1;2022_Mar_22_1220;VR_setting;2021.2.3;59.97692052109131;
audio/tri_31Hz_-6dBFS_31s.wav;;;images/MAM11NES.png;images/MAM11HAS.png;1;31;;;;;;;;;;;;;;;;;;;;;;0;0;0;0;;;;;0;1;1;5;;;;;;;;;;;;;;;;;;;;;;;;;;;;;;;;;;;;;;;;;;;;;;;;;;;285.1341040490006;None;285.1341040490006;None;"['j', 'k', 'l', 'l', 'j', 'l']";"[6.743948519004334, 9.34299572600139, 13.045870534006099, 18.737995798001066, 22.006927300004463, 25.678900600003544]";285.1341040490006;None;285.1327483860034;315.13217685699783;;;;;;;;;;;;;;;;;;;;;;;;;;;;;;;;;;;;;;;;;02;001;0;1;2022_Mar_22_1220;VR_setting;2021.2.3;59.97692052109131;
audio/white.wav.wav;;;images/MAM11HAS.png;images/MAM11NES.png;0;0;;;;;;;;;;;;;;;;;;;;;;0;0;0;0;;;;;0;2;2;2;;;;;;;;;;;;;;;;;;;;;;;;;;;;;;;;;;;;;;;;;;;;;;;;;;;320.175466804998;None;320.175466804998;None;"['l', 'l', 'j', 'l', 'j', 'k']";"[1.8076648719943478, 9.494525189998967, 16.210719570997753, 17.84363527000096, 23.428576942998916, 28.339760931994533]";320.175466804998;None;320.16541250999876;350.16507188299875;;;;;;;;;;;;;;;;;;;;;;;;;;;;;;;;;;;;;;;;;02;001;0;1;2022_Mar_22_1220;VR_setting;2021.2.3;59.97692052109131;
audio/tri_5Hz_-6dBFS_31s.wav;;;images/MAM11HAS.png;images/MAM11NES.png;1;5;;;;;;;;;;;;;;;;;;;;;;0;0;0;0;;;;;0;3;3;0;;;;;;;;;;;;;;;;;;;;;;;;;;;;;;;;;;;;;;;;;;;;;;;;;;;355.1996961600016;None;355.1996961600016;None;"['l', 'l', 'l', 'k', 'j', 'k', 'j', 'l']";"[1.6503128580006887, 2.11844634499721, 8.601483633996395, 14.996319988000323, 18.38036788899626, 23.540310677999514, 27.21630708399607, 29.451275594001345]";355.1996961600016;None;355.1982383579991;385.19783600899973;;;;;;;;;;;;;;;;;;;;;;;;;;;;;;;;;;;;;;;;;02;001;0;1;2022_Mar_22_1220;VR_setting;2021.2.3;59.97692052109131;
audio/tri_31Hz_-6dBFS_31s.wav;;;images/MAM11HAS.png;images/MAM11NES.png;1;31;;;;;;;;;;;;;;;;;;;;;;0;0;0;0;;;;;0;4;4;4;;;;;;;;;;;;;;;;;;;;;;;;;;;;;;;;;;;;;;;;;;;;;;;;;;;390.23329366800317;None;390.23329366800317;None;"['k', 'j', 'l', 'l', 'j', 'l', 'j', 'l', 'j', 'l']";"[4.72675670600438, 8.461812080000527, 9.906814090005355, 13.425666517003265, 15.251879621006083, 16.501798899000278, 23.634855847005383, 26.350800318999973, 27.67669104700326, 29.895680251000158]";390.23329366800317;None;390.2311132159987;None;;;;;;;;;;;;;;;;;;;;;;;;;;;;;;;;;;;;;;;;;02;001;0;1;2022_Mar_22_1220;VR_setting;2021.2.3;59.97692052109131;
audio/white.wav.wav;;;images/MAM11NES.png;images/MAM11HAS.png;0;0;;;;;;;;;;;;;;;;;;;;;;0;0;0;0;;;;;0;5;5;3;;;;;;;;;;;;;;;;;;;;;;;;;;;;;;;;;;;;;;;;;;;;;;;;;;;425.2695399410004;None;425.2695399410004;None;"['k', 'j', 'l', 'k', 'k', 'j', 'l', 'j']";"[1.9745385209971573, 6.1026229459967, 10.053590882998833, 12.967491428993526, 17.75045135599794, 21.199426112994843, 24.567532518994994, 29.73359643299773]";425.2695399410004;None;425.2639630779988;455.26332067300245;;;;;;;;;;;;;;;;;;;;;;;;;;;;;;;;;;;;;;;;;02;001;0;1;2022_Mar_22_1220;VR_setting;2021.2.3;59.97692052109131;
audio/tri_31Hz_-6dBFS_31s.wav;;;images/MAM11NES.png;images/MAM11HAS.png;1;31;;;;;;;;;;;;;;;;;;;;;;0;0;0;0;;;;;1;0;6;5;;;;;;;;;;;;;;;;;;;;;;;;;;;;;;;;;;;;;;;;;;;;;;;;;;;460.30128039300325;None;460.30128039300325;None;"['l', 'k', 'k', 'j', 'l', 'k', 'j', 'l', 'l', 'k']";"[2.2058514679956716, 6.0688450089946855, 12.40873816099338, 13.272878107993165, 15.235938812998938, 19.431847718995414, 20.670860843994888, 21.663690333996783, 26.36368814699381, 29.70294931299577]";460.30128039300325;None;460.296761947003;490.29641066600016;;;;;;;;;;;;;;;;;;;;;;;;;;;;;;;;;;;;;;;;;02;001;0;1;2022_Mar_22_1220;VR_setting;2021.2.3;59.97692052109131;
audio/tri_5Hz_-6dBFS_31s.wav;;;images/MAM11HAS.png;images/MAM11NES.png;1;5;;;;;;;;;;;;;;;;;;;;;;0;0;0;0;;;;;1;1;7;0;;;;;;;;;;;;;;;;;;;;;;;;;;;;;;;;;;;;;;;;;;;;;;;;;;;495.3365809379975;None;495.3365809379975;None;"['l', 'j', 'l', 'j', 'l', 'l', 'j', 'l', 'k']";"[1.848569314002816, 7.135543834003329, 8.556387328004348, 14.842591460997937, 16.521538569002587, 20.413423350000812, 23.551466164004523, 26.576585137998336, 28.405393247005122]";495.3365809379975;None;495.32960861700417;525.3293702369992;;;;;;;;;;;;;;;;;;;;;;;;;;;;;;;;;;;;;;;;;02;001;0;1;2022_Mar_22_1220;VR_setting;2021.2.3;59.97692052109131;
audio/tri_31Hz_-6dBFS_31s.wav;;;images/MAM11HAS.png;images/MAM11NES.png;1;31;;;;;;;;;;;;;;;;;;;;;;0;0;0;0;;;;;1;2;8;4;;;;;;;;;;;;;;;;;;;;;;;;;;;;;;;;;;;;;;;;;;;;;;;;;;;530.3660164239991;None;530.3660164239991;None;"['l', 'j', 'k', 'l', 'j', 'k', 'k', 'l', 'j', 'l', 'k', 'l', 'k']";"[2.1770388660006574, 4.606194605999917, 6.039926354998897, 8.823037359994487, 10.849099399994884, 12.238096078996023, 16.994044533996203, 17.763149939994037, 18.95501887899445, 21.33502254099585, 23.296109229995636, 23.939891652997176, 27.650119580001046]";530.3660164239991;None;530.3626232109993;560.3622546210026;;;;;;;;;;;;;;;;;;;;;;;;;;;;;;;;;;;;;;;;;02;001;0;1;2022_Mar_22_1220;VR_setting;2021.2.3;59.97692052109131;
audio/tri_5Hz_-6dBFS_31s.wav;;;images/MAM11NES.png;images/MAM11HAS.png;1;5;;;;;;;;;;;;;;;;;;;;;;0;0;0;0;;;;;1;3;9;1;;;;;;;;;;;;;;;;;;;;;;;;;;;;;;;;;;;;;;;;;;;;;;;;;;;565.4036889249983;None;565.4036889249983;None;"['l', 'k', 'j', 'k', 'l', 'j', 'k', 'k', 'k', 'k']";"[3.0332710490038153, 6.087372145004338, 10.930328971000563, 12.345452797002508, 14.074239788998966, 17.022428410004068, 17.691432683997846, 21.933450247997825, 24.439287583001715, 28.776227845002722]";565.4036889249983;None;565.3953671500014;595.3948015560018;;;;;;;;;;;;;;;;;;;;;;;;;;;;;;;;;;;;;;;;;02;001;0;1;2022_Mar_22_1220;VR_setting;2021.2.3;59.97692052109131;
audio/white.wav.wav;;;images/MAM11NES.png;images/MAM11HAS.png;0;0;;;;;;;;;;;;;;;;;;;;;;0;0;0;0;;;;;1;4;10;3;;;;;;;;;;;;;;;;;;;;;;;;;;;;;;;;;;;;;;;;;;;;;;;;;;;600.4308473810015;None;600.4308473810015;None;"['k', 'j', 'k', 'k', 'l', 'k', 'j', 'l', 'k']";"[2.844172350000008, 7.159164848999353, 8.1342960960028, 13.22526821000065, 15.931182881002314, 20.71927407899784, 22.09141757999896, 23.76515284999914, 27.815150763002748]";600.4308473810015;None;600.4281440160005;630.427691859004;;;;;;;;;;;;;;;;;;;;;;;;;;;;;;;;;;;;;;;;;02;001;0;1;2022_Mar_22_1220;VR_setting;2021.2.3;59.97692052109131;
audio/white.wav.wav;;;images/MAM11HAS.png;images/MAM11NES.png;0;0;;;;;;;;;;;;;;;;;;;;;;0;0;0;0;;;;;1;5;11;2;;;;;;;;;;;;;;;;;;;;;;;;;;;;;;;;;;;;;;;;;;;;;;;;;;;635.466807679004;None;635.466807679004;None;"['l', 'j', 'k', 'k', 'l', 'j', 'k', 'l', 'j', 'k']";"[3.99232210599439, 7.85935847699875, 9.59920352199697, 12.193234817998018, 16.013364051999815, 19.193222589994548, 21.56521046099806, 25.136183711998456, 26.85525387099915, 29.410356925000087]";635.466807679004;None;635.4609591830042;665.4606349850001;;;;;;;;;;;;;;;;;;;;;;;;;;;;;;;;;;;;;;;;;02;001;0;1;2022_Mar_22_1220;VR_setting;2021.2.3;59.97692052109131;
;;;;;;;;;;;;;;;;;;;;;;;;;;;;0;0;0;0;;;;;;;;;;;;;;;;;;;;;;;;;;;;;;;;;;;;;;;;;;;;;;;;;;;;;;;;;;;;;;;;;;;;;;;;;;;;;;;;;;;;;;;;;;;;;;;;;;;;;;;;;;;;;02;001;0;1;2022_Mar_22_1220;VR_setting;2021.2.3;59.97692052109131;
;;;;;;;;;;;;;;;;;;;;;;;;;;;;1;0;1;0;;;;;;;;;0;0;0;0;;;;;;;;;;;;;;;;;;;;;;;;;;;;;;;;;;;;;;;;;;;;;;;;;;;;;;;;;668.4855301110001;None;668.4855301110001;None;;;;;;;;;;;;;;;;;;;;;;;;;;;;;;;;;;;;;02;001;0;1;2022_Mar_22_1220;VR_setting;2021.2.3;59.97692052109131;
audio/white.wav.wav;;;images/MAM11BFI.png;images/MAM11NES.png;0;0;;;;;;;;;;;;;;;;;;;;;;1;0;1;0;;;;;;;;;;;;;0;0;0;3;;;;;;;;;;;;;;;;;;;;;;;;;;;;;;;;;;;;;;;;;;;712.8939330069989;None;712.8939330069989;None;"['l', 'l', 'k', 'j']";"[0.5451381980019505, 10.197234335006215, 16.266247018000286, 27.431054972999846]";712.8939330069989;None;712.8931018899996;742.8928627479982;;;;;;;;;;;;;;;;;;;;;;;;;;;;;;;;;;;;;;;;;02;001;0;1;2022_Mar_22_1220;VR_setting;2021.2.3;59.97692052109131;
audio/tri_5Hz_-6dBFS_31s.wav;;;images/MAM11BFI.png;images/MAM11NES.png;1;5;;;;;;;;;;;;;;;;;;;;;;1;0;1;0;;;;;;;;;;;;;0;1;1;1;;;;;;;;;;;;;;;;;;;;;;;;;;;;;;;;;;;;;;;;;;;747.9277879250003;None;747.9277879250003;None;"['l', 'k', 'l', 'k', 'l']";"[2.0992237719983677, 5.735342510997725, 12.650273279999965, 19.658401913999114, 29.13634445599746]";747.9277879250003;None;747.9261272949982;777.9256339530039;;;;;;;;;;;;;;;;;;;;;;;;;;;;;;;;;;;;;;;;;02;001;0;1;2022_Mar_22_1220;VR_setting;2021.2.3;59.97692052109131;
audio/tri_5Hz_-6dBFS_31s.wav;;;images/MAM11NES.png;images/MAM11BFI.png;1;5;;;;;;;;;;;;;;;;;;;;;;1;0;1;0;;;;;;;;;;;;;0;2;2;0;;;;;;;;;;;;;;;;;;;;;;;;;;;;;;;;;;;;;;;;;;;782.9663178550036;None;782.9663178550036;None;"['l', 'k', 'k', 'l', 'k']";"[2.1866452590038534, 6.866816642002959, 16.98372059599933, 23.374887363002927, 29.040867076000723]";782.9663178550036;None;782.9589747660023;812.9586398410029;;;;;;;;;;;;;;;;;;;;;;;;;;;;;;;;;;;;;;;;;02;001;0;1;2022_Mar_22_1220;VR_setting;2021.2.3;59.97692052109131;
audio/tri_31Hz_-6dBFS_31s.wav;;;images/MAM11NES.png;images/MAM11BFI.png;1;31;;;;;;;;;;;;;;;;;;;;;;1;0;1;0;;;;;;;;;;;;;0;3;3;4;;;;;;;;;;;;;;;;;;;;;;;;;;;;;;;;;;;;;;;;;;;817.9942361170033;None;817.9942361170033;None;"['l', 'k', 'j', 'k', 'k', 'j', 'k', 'j']";"[1.3119168390039704, 7.905782620997343, 12.803786955002579, 14.443809982003586, 20.62796561000141, 23.425812202003726, 26.52088085500145, 27.813928007002687]";817.9942361170033;None;817.9918082879988;847.9914094790001;;;;;;;;;;;;;;;;;;;;;;;;;;;;;;;;;;;;;;;;;02;001;0;1;2022_Mar_22_1220;VR_setting;2021.2.3;59.97692052109131;
audio/white.wav.wav;;;images/MAM11NES.png;images/MAM11BFI.png;0;0;;;;;;;;;;;;;;;;;;;;;;1;0;1;0;;;;;;;;;;;;;0;4;4;2;;;;;;;;;;;;;;;;;;;;;;;;;;;;;;;;;;;;;;;;;;;853.0304802570026;None;853.0304802570026;None;"['k', 'j', 'k', 'j', 'k', 'j', 'k']";"[1.6365897799987579, 9.065619467997749, 12.56155441699957, 16.26451812400046, 20.95645806399989, 23.980514951996156, 29.05359988899727]";853.0304802570026;None;853.0247301500015;883.0241760209974;;;;;;;;;;;;;;;;;;;;;;;;;;;;;;;;;;;;;;;;;02;001;0;1;2022_Mar_22_1220;VR_setting;2021.2.3;59.97692052109131;
audio/tri_31Hz_-6dBFS_31s.wav;;;images/MAM11BFI.png;images/MAM11NES.png;1;31;;;;;;;;;;;;;;;;;;;;;;1;0;1;0;;;;;;;;;;;;;0;5;5;5;;;;;;;;;;;;;;;;;;;;;;;;;;;;;;;;;;;;;;;;;;;888.0628586120001;None;888.0628586120001;None;"['l', 'l', 'k', 'j', 'l', 'k']";"[1.0232343719981145, 4.366222183998616, 13.613101068993274, 18.897337707996485, 22.49427500699676, 27.27112152799964]";888.0628586120001;None;888.0575290090012;918.0570906630019;;;;;;;;;;;;;;;;;;;;;;;;;;;;;;;;;;;;;;;;;02;001;0;1;2022_Mar_22_1220;VR_setting;2021.2.3;59.97692052109131;
audio/tri_5Hz_-6dBFS_31s.wav;;;images/MAM11NES.png;images/MAM11BFI.png;1;5;;;;;;;;;;;;;;;;;;;;;;1;0;1;0;;;;;;;;;;;;;1;0;6;0;;;;;;;;;;;;;;;;;;;;;;;;;;;;;;;;;;;;;;;;;;;923.1007240500039;None;923.1007240500039;None;"['l', 'k', 'j', 'j', 'k']";"[2.6082235259964364, 10.564409345999593, 17.114444008002465, 22.46332411399635, 27.734315743997286]";923.1007240500039;None;923.090396380004;953.089922551997;;;;;;;;;;;;;;;;;;;;;;;;;;;;;;;;;;;;;;;;;02;001;0;1;2022_Mar_22_1220;VR_setting;2021.2.3;59.97692052109131;
audio/white.wav.wav;;;images/MAM11NES.png;images/MAM11BFI.png;0;0;;;;;;;;;;;;;;;;;;;;;;1;0;1;0;;;;;;;;;;;;;1;1;7;2;;;;;;;;;;;;;;;;;;;;;;;;;;;;;;;;;;;;;;;;;;;958.1229512119971;None;958.1229512119971;None;"['l', 'l', 'j', 'k', 'j', 'k', 'l']";"[2.988063903998409, 8.196259737000219, 11.436971201001143, 13.847027889001765, 17.55311912199977, 20.648127525004384, 26.406209546003083]";958.1229512119971;None;958.1228624699972;None;;;;;;;;;;;;;;;;;;;;;;;;;;;;;;;;;;;;;;;;;02;001;0;1;2022_Mar_22_1220;VR_setting;2021.2.3;59.97692052109131;
audio/tri_31Hz_-6dBFS_31s.wav;;;images/MAM11BFI.png;images/MAM11NES.png;1;31;;;;;;;;;;;;;;;;;;;;;;1;0;1;0;;;;;;;;;;;;;1;2;8;5;;;;;;;;;;;;;;;;;;;;;;;;;;;;;;;;;;;;;;;;;;;993.1481023410015;None;993.1481023410015;None;"['l', 'j', 'k', 'j', 'l', 'j', 'k', 'j', 'k']";"[1.1840772010036744, 7.21110133700131, 13.318070123001235, 14.484915380999155, 20.553022122003313, 21.93785734300036, 23.932020571002795, 26.547029175002535, 28.741975233999256]";993.1481023410015;None;993.1393759300001;1023.1388383360027;;;;;;;;;;;;;;;;;;;;;;;;;;;;;;;;;;;;;;;;;02;001;0;1;2022_Mar_22_1220;VR_setting;2021.2.3;59.97692052109131;
audio/tri_31Hz_-6dBFS_31s.wav;;;images/MAM11NES.png;images/MAM11BFI.png;1;31;;;;;;;;;;;;;;;;;;;;;;1;0;1;0;;;;;;;;;;;;;1;3;9;4;;;;;;;;;;;;;;;;;;;;;;;;;;;;;;;;;;;;;;;;;;;1028.1818879619968;None;1028.1818879619968;None;"['l', 'k', 'j', 'k', 'l', 'j', 'k', 'l', 'l', 'j']";"[5.549142522002512, 7.8732430020027095, 9.341139556003327, 10.956098775997816, 13.907270515999699, 17.664220395003213, 19.818252311000833, 23.065237134003837, 26.30907417999697, 29.24113207699702]";1028.1818879619968;None;1028.1720744130025;1058.1717781350017;;;;;;;;;;;;;;;;;;;;;;;;;;;;;;;;;;;;;;;;;02;001;0;1;2022_Mar_22_1220;VR_setting;2021.2.3;59.97692052109131;
audio/tri_5Hz_-6dBFS_31s.wav;;;images/MAM11BFI.png;images/MAM11NES.png;1;5;;;;;;;;;;;;;;;;;;;;;;1;0;1;0;;;;;;;;;;;;;1;4;10;1;;;;;;;;;;;;;;;;;;;;;;;;;;;;;;;;;;;;;;;;;;;1063.2129605430018;None;1063.2129605430018;None;"['l', 'k', 'j', 'k', 'j']";"[1.558183145003568, 7.186135386000387, 14.767193110004882, 19.295224998000776, 29.53417880300549]";1063.2129605430018;None;1063.2050618890016;1093.2046140899984;;;;;;;;;;;;;;;;;;;;;;;;;;;;;;;;;;;;;;;;;02;001;0;1;2022_Mar_22_1220;VR_setting;2021.2.3;59.97692052109131;
audio/white.wav.wav;;;images/MAM11BFI.png;images/MAM11NES.png;0;0;;;;;;;;;;;;;;;;;;;;;;1;0;1;0;;;;;;;;;;;;;1;5;11;3;;;;;;;;;;;;;;;;;;;;;;;;;;;;;;;;;;;;;;;;;;;1098.2402700509992;None;1098.2402700509992;None;"['k', 'j', 'k', 'k', 'k']";"[4.8958955249981955, 9.538894871999219, 13.720902604000003, 20.1016902880001, 27.24092034399655]";1098.2402700509992;None;1098.2379492220016;1128.237427262;;;;;;;;;;;;;;;;;;;;;;;;;;;;;;;;;;;;;;;;;02;001;0;1;2022_Mar_22_1220;VR_setting;2021.2.3;59.97692052109131;
;;;;;;;;;;;;;;;;;;;;;;;;;;;;1;0;1;0;;;;;;;;;;;;;;;;;;;;;;;;;;;;;;;;;;;;;;;;;;;;;;;;;;;;;;;;;;;;;;;;;;;;;;;;;;;;;;;;;;;;;;;;;;;;;;;;;;;;;;;;;;;;;02;001;0;1;2022_Mar_22_1220;VR_setting;2021.2.3;59.97692052109131;
;;;;;;;;;;;;;;;;;;;;;;;;;;;;;;;;;;;;;;;;;;;;;;;;;;;;;;;;;;;;;;;;;;;;;;;;;;;;;;;;;;;;;;;;;;;;;;;;;;;;;;;;1131.2540969539987;None;space;45.364696190998075;1131.2540969539987;None;;;;;;;;;;;;;;;;;;;;;;;;;;;;;;;02;001;0;1;2022_Mar_22_1220;VR_setting;2021.2.3;59.97692052109131;
;;;;;;;;;;;;;;;;;;;;;;;;;;;;;;;;;;;;;;;;;;;;;;;;0;0;0;0;0;0;0;0;;;;;;;;;;;;;;;;;;;;;;;;;;;;;;;;;;;;;;;;;;;;;;;;;;;;;;;1176.6366603959978;None;1176.6366603959978;None;;;;;;;;;;;;;;;;;;;;;;;;;;;02;001;0;1;2022_Mar_22_1220;VR_setting;2021.2.3;59.97692052109131;
audio/tri_31Hz_-6dBFS_31s.wav;;;images/MAM11HAS.png;images/MAM11NES.png;1;31;;;;;;;;;;;;;;;;;;;;;;;;;;;;;;;;;;;;;;;;;;0;0;0;0;;;;;0;0;0;4;;;;;;;;;;;;;;;;;;;;;;;;;;;;;;;1194.3200219639984;None;1194.3200219639984;None;"['j', 'k', 'j']";"[1.5700813209987246, 10.01402522400167, 15.774113293999108]";1194.3200219639984;None;1194.3198477249998;None;;;;;;;;;;;;;;;;;;;;;;;;;;;;;;;;;;;;;;;;;02;001;0;1;2022_Mar_22_1220;VR_setting;2021.2.3;59.97692052109131;
audio/white.wav.wav;;;images/MAM11NES.png;images/MAM11HAS.png;0;0;;;;;;;;;;;;;;;;;;;;;;;;;;;;;;;;;;;;;;;;;;0;0;0;0;;;;;0;1;1;3;;;;;;;;;;;;;;;;;;;;;;;;;;;;;;;1229.3403554960023;None;1229.3403554960023;None;"['k', 'k', 'l', 'j']";"[4.758666018999065, 12.420592257993121, 21.855677708997973, 24.021590112999547]";1229.3403554960023;None;1229.3359239169977;1259.3355284470017;;;;;;;;;;;;;;;;;;;;;;;;;;;;;;;;;;;;;;;;;02;001;0;1;2022_Mar_22_1220;VR_setting;2021.2.3;59.97692052109131;
audio/tri_31Hz_-6dBFS_31s.wav;;;images/MAM11NES.png;images/MAM11HAS.png;1;31;;;;;;;;;;;;;;;;;;;;;;;;;;;;;;;;;;;;;;;;;;0;0;0;0;;;;;0;2;2;5;;;;;;;;;;;;;;;;;;;;;;;;;;;;;;;1264.371936100004;None;1264.371936100004;None;"['j', 'l', 'j', 'k', 'l', 'j']";"[2.0882007890031673, 4.068134036999254, 9.331095646004542, 12.175137188001827, 23.386044027000025, 26.69608958000026]";1264.371936100004;None;1264.368629132;1294.3685054980015;;;;;;;;;;;;;;;;;;;;;;;;;;;;;;;;;;;;;;;;;02;001;0;1;2022_Mar_22_1220;VR_setting;2021.2.3;59.97692052109131;
audio/tri_5Hz_-6dBFS_31s.wav;;;images/MAM11HAS.png;images/MAM11NES.png;1;5;;;;;;;;;;;;;;;;;;;;;;;;;;;;;;;;;;;;;;;;;;0;0;0;0;;;;;0;3;3;0;;;;;;;;;;;;;;;;;;;;;;;;;;;;;;;1299.4080040679983;None;1299.4080040679983;None;"['j', 'j', 'k', 'l', 'k', 'l', 'j']";"[2.0120115369936684, 8.961919025998213, 11.596923271994456, 13.051143369993952, 19.527183828999114, 22.456028099994, 28.822069265996106]";1299.4080040679983;None;1299.4017072369998;1329.4012564639997;;;;;;;;;;;;;;;;;;;;;;;;;;;;;;;;;;;;;;;;;02;001;0;1;2022_Mar_22_1220;VR_setting;2021.2.3;59.97692052109131;
audio/white.wav.wav;;;images/MAM11HAS.png;images/MAM11NES.png;0;0;;;;;;;;;;;;;;;;;;;;;;;;;;;;;;;;;;;;;;;;;;0;0;0;0;;;;;0;4;4;2;;;;;;;;;;;;;;;;;;;;;;;;;;;;;;;1334.4347832580024;None;1334.4347832580024;None;"['k', 'j', 'k']";"[5.797228968003765, 12.434260417998303, 20.72238530100003]";1334.4347832580024;None;1334.4345760930037;None;;;;;;;;;;;;;;;;;;;;;;;;;;;;;;;;;;;;;;;;;02;001;0;1;2022_Mar_22_1220;VR_setting;2021.2.3;59.97692052109131;
audio/tri_5Hz_-6dBFS_31s.wav;;;images/MAM11NES.png;images/MAM11HAS.png;1;5;;;;;;;;;;;;;;;;;;;;;;;;;;;;;;;;;;;;;;;;;;0;0;0;0;;;;;0;5;5;1;;;;;;;;;;;;;;;;;;;;;;;;;;;;;;;1369.4586492099988;None;1369.4586492099988;None;"['k', 'j', 'k', 'k', 'j', 'j']";"[3.258377539998037, 5.922325191000709, 14.959622628004581, 21.145494459000474, 24.653413533000275, 27.86147237499972]";1369.4586492099988;None;1369.4506564260037;1399.4500814280036;;;;;;;;;;;;;;;;;;;;;;;;;;;;;;;;;;;;;;;;;02;001;0;1;2022_Mar_22_1220;VR_setting;2021.2.3;59.97692052109131;
audio/white.wav.wav;;;images/MAM11NES.png;images/MAM11HAS.png;0;0;;;;;;;;;;;;;;;;;;;;;;;;;;;;;;;;;;;;;;;;;;0;0;0;0;;;;;1;0;6;3;;;;;;;;;;;;;;;;;;;;;;;;;;;;;;;1404.4880974249972;None;1404.4880974249972;None;"['k', 'k', 'l', 'k', 'l', 'j', 'k', 'j']";"[2.6880595959955826, 9.943061496000155, 11.137980539999262, 16.826839389999805, 17.446928678000404, 18.820018492995587, 21.678086494001036, 27.55483624599583]";1404.4880974249972;None;1404.483129494004;1434.483075586002;;;;;;;;;;;;;;;;;;;;;;;;;;;;;;;;;;;;;;;;;02;001;0;1;2022_Mar_22_1220;VR_setting;2021.2.3;59.97692052109131;
audio/tri_31Hz_-6dBFS_31s.wav;;;images/MAM11HAS.png;images/MAM11NES.png;1;31;;;;;;;;;;;;;;;;;;;;;;;;;;;;;;;;;;;;;;;;;;0;0;0;0;;;;;1;1;7;4;;;;;;;;;;;;;;;;;;;;;;;;;;;;;;;1439.5223855689983;None;1439.5223855689983;None;"['k', 'j', 'j', 'k', 'j', 'k', 'l', 'j']";"[4.564574007999909, 8.235783784999512, 12.595692871997016, 14.224620518994925, 17.015778574997967, 21.252662531995156, 26.942739562997303, 28.464715647998673]";1439.5223855689983;None;1439.5161975960027;1469.5160346940029;;;;;;;;;;;;;;;;;;;;;;;;;;;;;;;;;;;;;;;;;02;001;0;1;2022_Mar_22_1220;VR_setting;2021.2.3;59.97692052109131;
audio/white.wav.wav;;;images/MAM11HAS.png;images/MAM11NES.png;0;0;;;;;;;;;;;;;;;;;;;;;;;;;;;;;;;;;;;;;;;;;;0;0;0;0;;;;;1;2;8;2;;;;;;;;;;;;;;;;;;;;;;;;;;;;;;;1474.5524671520034;None;1474.5524671520034;None;"['j', 'k', 'j', 'l', 'l', 'k', 'l', 'k', 'k', 'j']";"[2.8285305090030306, 4.3637291330014705, 7.245673873003398, 10.026707235003414, 12.226538736998918, 13.254701304002083, 15.327581242003362, 18.566637839998293, 21.55358793600317, 27.082698648999212]";1474.5524671520034;None;1474.548932665998;1504.5488070249994;;;;;;;;;;;;;;;;;;;;;;;;;;;;;;;;;;;;;;;;;02;001;0;1;2022_Mar_22_1220;VR_setting;2021.2.3;59.97692052109131;
audio/tri_5Hz_-6dBFS_31s.wav;;;images/MAM11HAS.png;images/MAM11NES.png;1;5;;;;;;;;;;;;;;;;;;;;;;;;;;;;;;;;;;;;;;;;;;0;0;0;0;;;;;1;3;9;0;;;;;;;;;;;;;;;;;;;;;;;;;;;;;;;1509.5821855989998;None;1509.5821855989998;None;"['j', 'k', 'k', 'j', 'k', 'j', 'l']";"[2.1659463179967133, 5.238932113999908, 9.829827598994598, 15.605908205994638, 16.781921271998726, 20.712807418996817, 28.53479351599526]";1509.5821855989998;None;1509.5818686880039;None;;;;;;;;;;;;;;;;;;;;;;;;;;;;;;;;;;;;;;;;;02;001;0;1;2022_Mar_22_1220;VR_setting;2021.2.3;59.97692052109131;
audio/tri_5Hz_-6dBFS_31s.wav;;;images/MAM11NES.png;images/MAM11HAS.png;1;5;;;;;;;;;;;;;;;;;;;;;;;;;;;;;;;;;;;;;;;;;;0;0;0;0;;;;;1;4;10;1;;;;;;;;;;;;;;;;;;;;;;;;;;;;;;;1544.6028532869968;None;1544.6028532869968;None;"['j', 'k', 'k', 'j', 'k', 'k', 'j', 'j', 'j', 'l']";"[3.7013307770030224, 5.2572586860042065, 11.815257504000328, 13.256055566998839, 15.817311912003788, 17.036282997003582, 18.377284873000463, 21.007224644003145, 24.60216567900352, 25.75935814100376]";1544.6028532869968;None;1544.598053568002;1574.5977807710005;;;;;;;;;;;;;;;;;;;;;;;;;;;;;;;;;;;;;;;;;02;001;0;1;2022_Mar_22_1220;VR_setting;2021.2.3;59.97692052109131;
audio/tri_31Hz_-6dBFS_31s.wav;;;images/MAM11NES.png;images/MAM11HAS.png;1;31;;;;;;;;;;;;;;;;;;;;;;;;;;;;;;;;;;;;;;;;;;0;0;0;0;;;;;1;5;11;5;;;;;;;;;;;;;;;;;;;;;;;;;;;;;;;1579.631576206004;None;1579.631576206004;None;"['j', 'j', 'k', 'k', 'j', 'k', 'j']";"[1.5236475510027958, 6.780448390003585, 10.78347258699796, 14.020582454999385, 20.24762104399997, 22.319611267004802, 28.636442488998]";1579.631576206004;None;1579.6309635969983;None;;;;;;;;;;;;;;;;;;;;;;;;;;;;;;;;;;;;;;;;;02;001;0;1;2022_Mar_22_1220;VR_setting;2021.2.3;59.97692052109131;
;;;;;;;;;;;;;;;;;;;;;;;;;;;;;;;;;;;;;;;;;;;;;;;;0;0;0;0;;;;;;;;;;;;;;;;;;;;;;;;;;;;;;;;;;;;;;;;;;;;;;;;;;;;;;;;;;;;;;;;;;;;;;;;;;;;;;;;;;;;;;;;;02;001;0;1;2022_Mar_22_1220;VR_setting;2021.2.3;59.97692052109131;
;;;;;;;;;;;;;;;;;;;;;;;;;;;;;;;;;;;;;;;;;;;;;;;;1;0;1;0;;;;;;;;;0;0;0;0;;;;;;;;;;;;;;;;;;;;;;;;;;;;;;;;;;;;;;;;;;;;;;;;;;;1612.6390115910035;None;1612.6390115910035;None;;;;;;;;;;;;;;;;;;;;;;;02;001;0;1;2022_Mar_22_1220;VR_setting;2021.2.3;59.97692052109131;
audio/tri_5Hz_-6dBFS_31s.wav;;;images/MAM11NES.png;images/MAM11BFI.png;1;5;;;;;;;;;;;;;;;;;;;;;;;;;;;;;;;;;;;;;;;;;;1;0;1;0;;;;;;;;;;;;;0;0;0;0;;;;;;;;;;;;;;;;;;;;;;;1646.330294311003;None;1646.330294311003;None;"['j', 'l', 'k', 'l', 'k']";"[0.9838616019987967, 9.583769258002576, 13.679714855999919, 21.781650212004024, 28.9228711379983]";1646.330294311003;None;1646.3298478930037;None;;;;;;;;;;;;;;;;;;;;;;;;;;;;;;;;;;;;;;;;;02;001;0;1;2022_Mar_22_1220;VR_setting;2021.2.3;59.97692052109131;
audio/white.wav.wav;;;images/MAM11BFI.png;images/MAM11NES.png;0;0;;;;;;;;;;;;;;;;;;;;;;;;;;;;;;;;;;;;;;;;;;1;0;1;0;;;;;;;;;;;;;0;1;1;3;;;;;;;;;;;;;;;;;;;;;;;1681.3520209679991;None;1681.3520209679991;None;"['j', 'l', 'j']";"[2.6651037510018796, 21.698014208006498, 26.75599648800562]";1681.3520209679991;None;1681.3462770249998;1711.345912939003;;;;;;;;;;;;;;;;;;;;;;;;;;;;;;;;;;;;;;;;;02;001;0;1;2022_Mar_22_1220;VR_setting;2021.2.3;59.97692052109131;
audio/white.wav.wav;;;images/MAM11NES.png;images/MAM11BFI.png;0;0;;;;;;;;;;;;;;;;;;;;;;;;;;;;;;;;;;;;;;;;;;1;0;1;0;;;;;;;;;;;;;0;2;2;2;;;;;;;;;;;;;;;;;;;;;;;1716.383898123997;None;1716.383898123997;None;"['j', 'k']";"[1.942249419997097, 8.836295294997399]";1716.383898123997;None;1716.3791099449982;1746.378782603002;;;;;;;;;;;;;;;;;;;;;;;;;;;;;;;;;;;;;;;;;02;001;0;1;2022_Mar_22_1220;VR_setting;2021.2.3;59.97692052109131;
audio/tri_31Hz_-6dBFS_31s.wav;;;images/MAM11NES.png;images/MAM11BFI.png;1;31;;;;;;;;;;;;;;;;;;;;;;;;;;;;;;;;;;;;;;;;;;1;0;1;0;;;;;;;;;;;;;0;3;3;4;;;;;;;;;;;;;;;;;;;;;;;1751.4154036149994;None;1751.4154036149994;None;"['l', 'k', 'l', 'k', 'k', 'k']";"[5.48959227999876, 11.218775625995477, 14.751756419995218, 18.372605236996606, 21.840711466997163, 29.498748364996572]";1751.4154036149994;None;1751.4120710590023;1781.4115715970038;;;;;;;;;;;;;;;;;;;;;;;;;;;;;;;;;;;;;;;;;02;001;0;1;2022_Mar_22_1220;VR_setting;2021.2.3;59.97692052109131;
audio/tri_5Hz_-6dBFS_31s.wav;;;images/MAM11BFI.png;images/MAM11NES.png;1;5;;;;;;;;;;;;;;;;;;;;;;;;;;;;;;;;;;;;;;;;;;1;0;1;0;;;;;;;;;;;;;0;4;4;1;;;;;;;;;;;;;;;;;;;;;;;1786.4521651600007;None;1786.4521651600007;None;['j'];[2.219999298999028];1786.4521651600007;None;1786.4449185660005;1816.444421111999;;;;;;;;;;;;;;;;;;;;;;;;;;;;;;;;;;;;;;;;;02;001;0;1;2022_Mar_22_1220;VR_setting;2021.2.3;59.97692052109131;
audio/tri_31Hz_-6dBFS_31s.wav;;;images/MAM11BFI.png;images/MAM11NES.png;1;31;;;;;;;;;;;;;;;;;;;;;;;;;;;;;;;;;;;;;;;;;;1;0;1;0;;;;;;;;;;;;;0;5;5;5;;;;;;;;;;;;;;;;;;;;;;;1821.4787842939986;None;1821.4787842939986;None;"['j', 'k', 'k', 'l', 'j']";"[1.9703722810008912, 11.760276008004439, 15.966286877999664, 22.748298302001785, 27.39234315200156]";1821.4787842939986;None;1821.477737488999;1851.4772003539983;;;;;;;;;;;;;;;;;;;;;;;;;;;;;;;;;;;;;;;;;02;001;0;1;2022_Mar_22_1220;VR_setting;2021.2.3;59.97692052109131;
audio/tri_31Hz_-6dBFS_31s.wav;;;images/MAM11BFI.png;images/MAM11NES.png;1;31;;;;;;;;;;;;;;;;;;;;;;;;;;;;;;;;;;;;;;;;;;1;0;1;0;;;;;;;;;;;;;1;0;6;5;;;;;;;;;;;;;;;;;;;;;;;1856.511306020002;None;1856.511306020002;None;"['j', 'k', 'k', 'j']";"[2.2468112830028986, 6.241751858004136, 19.9116834650049, 26.77474425600667]";1856.511306020002;None;1856.5105506770005;1886.5101226309998;;;;;;;;;;;;;;;;;;;;;;;;;;;;;;;;;;;;;;;;;02;001;0;1;2022_Mar_22_1220;VR_setting;2021.2.3;59.97692052109131;
audio/tri_5Hz_-6dBFS_31s.wav;;;images/MAM11NES.png;images/MAM11BFI.png;1;5;;;;;;;;;;;;;;;;;;;;;;;;;;;;;;;;;;;;;;;;;;1;0;1;0;;;;;;;;;;;;;1;1;7;0;;;;;;;;;;;;;;;;;;;;;;;1891.5509519670013;None;1891.5509519670013;None;"['j', 'k', 'j', 'l', 'l']";"[2.2232529370012344, 7.157100701006129, 17.70025573100429, 19.822083207000105, 26.044009138000547]";1891.5509519670013;None;1891.543403270999;1921.542962806001;;;;;;;;;;;;;;;;;;;;;;;;;;;;;;;;;;;;;;;;;02;001;0;1;2022_Mar_22_1220;VR_setting;2021.2.3;59.97692052109131;
audio/white.wav.wav;;;images/MAM11BFI.png;images/MAM11NES.png;0;0;;;;;;;;;;;;;;;;;;;;;;;;;;;;;;;;;;;;;;;;;;1;0;1;0;;;;;;;;;;;;;1;2;8;3;;;;;;;;;;;;;;;;;;;;;;;1926.581457045002;None;1926.581457045002;None;"['j', 'k', 'k', 'k', 'k', 'j']";"[1.1826944970016484, 5.065608741002507, 10.238537521996477, 16.85467057400092, 23.02951660299732, 26.003641297997092]";1926.581457045002;None;1926.576070101003;1956.5758079959996;;;;;;;;;;;;;;;;;;;;;;;;;;;;;;;;;;;;;;;;;02;001;0;1;2022_Mar_22_1220;VR_setting;2021.2.3;59.97692052109131;
audio/tri_5Hz_-6dBFS_31s.wav;;;images/MAM11BFI.png;images/MAM11NES.png;1;5;;;;;;;;;;;;;;;;;;;;;;;;;;;;;;;;;;;;;;;;;;1;0;1;0;;;;;;;;;;;;;1;3;9;1;;;;;;;;;;;;;;;;;;;;;;;1961.6123193890016;None;1961.6123193890016;None;"['j', 'k', 'j']";"[2.851847915997496, 12.75684167700092, 17.323821206999128]";1961.6123193890016;None;1961.609102327001;1991.6086077009968;;;;;;;;;;;;;;;;;;;;;;;;;;;;;;;;;;;;;;;;;02;001;0;1;2022_Mar_22_1220;VR_setting;2021.2.3;59.97692052109131;
audio/white.wav.wav;;;images/MAM11NES.png;images/MAM11BFI.png;0;0;;;;;;;;;;;;;;;;;;;;;;;;;;;;;;;;;;;;;;;;;;1;0;1;0;;;;;;;;;;;;;1;4;10;2;;;;;;;;;;;;;;;;;;;;;;;1996.6510084019974;None;1996.6510084019974;None;"['j', 'k', 'j']";"[1.6331615539966151, 13.031201851998048, 18.10399407299701]";1996.6510084019974;None;1996.6418825980027;2026.641683695998;;;;;;;;;;;;;;;;;;;;;;;;;;;;;;;;;;;;;;;;;02;001;0;1;2022_Mar_22_1220;VR_setting;2021.2.3;59.97692052109131;
audio/tri_31Hz_-6dBFS_31s.wav;;;images/MAM11NES.png;images/MAM11BFI.png;1;31;;;;;;;;;;;;;;;;;;;;;;;;;;;;;;;;;;;;;;;;;;1;0;1;0;;;;;;;;;;;;;1;5;11;4;;;;;;;;;;;;;;;;;;;;;;;2031.6812632610017;None;2031.6812632610017;None;"['j', 'k', 'l', 'k', 'l', 'j']";"[1.8828738759984844, 12.177753996002139, 12.699845848001132, 16.278886086001876, 22.83868385400274, 27.52691545199923]";2031.6812632610017;None;2031.674690656003;2061.674275641002;;;;;;;;;;;;;;;;;;;;;;;;;;;;;;;;;;;;;;;;;02;001;0;1;2022_Mar_22_1220;VR_setting;2021.2.3;59.97692052109131;
;;;;;;;;;;;;;;;;;;;;;;;;;;;;;;;;;;;;;;;;;;;;;;;;1;0;1;0;;;;;;;;;;;;;;;;;;;;;;;;;;;;;;;;;;;;;;;;;;;;;;;;;;;;;;;;;;;;;;;;;;;;;;;;;;;;;;;;;;;;;;;;;02;001;0;1;2022_Mar_22_1220;VR_setting;2021.2.3;59.97692052109131;
audio/tri_31Hz_-6dBFS_31s.wav;;;images/MAM11HAS.png;images/MAM11HAS.png;1;31;2;;;;;;;;;;;;;;;;;;;;;;;;;;;;;;;;;;;;;;;;;;;;;;;;;;;;;;;;;;;;;0;0;0;7;;;;;;;;;;;;;;;;;;;;;;;;;;;;;;;;;;;;;;;;;;;;;;;2064.6910145910006;None;2064.6910145910006;None;2102.470739602002;None;2102.470739602002;None;6;2.8792408619992784;2102.470739602002;None;2102.457085598001;None;;;;;;;;;02;001;0;1;2022_Mar_22_1220;VR_setting;2021.2.3;59.97692052109131;
audio/white.wav.wav;;;images/MAM11NES.png;images/MAM11NES.png;0;0;3;;;;;;;;;;;;;;;;;;;;;;;;;;;;;;;;;;;;;;;;;;;;;;;;;;;;;;;;;;;;;0;1;1;2;;;;;;;;;;;;;;;;;;;;;;;;;;;;;;;;;;;;;;;;;;;;;;;;;;;2107.398466603998;None;2107.398466603998;None;3;3.537338178997743;2107.398466603998;None;2107.3901492609975;None;;;;;;;;;02;001;0;1;2022_Mar_22_1220;VR_setting;2021.2.3;59.97692052109131;
audio/tri_5Hz_-6dBFS_31s.wav;;;images/MAM11BFI.png;images/MAM11BFI.png;1;5;1;;;;;;;;;;;;;;;;;;;;;;;;;;;;;;;;;;;;;;;;;;;;;;;;;;;;;;;;;;;;;0;2;2;3;;;;;;;;;;;;;;;;;;;;;;;;;;;;;;;;;;;;;;;;;;;;;;;;;;;2112.979614110998;None;2112.979614110998;None;2;3.485310196003411;2112.979614110998;None;2112.9735735120003;None;;;;;;;;;02;001;0;1;2022_Mar_22_1220;VR_setting;2021.2.3;59.97692052109131;
audio/tri_5Hz_-6dBFS_31s.wav;;;images/MAM11HAS.png;images/MAM11HAS.png;1;5;2;;;;;;;;;;;;;;;;;;;;;;;;;;;;;;;;;;;;;;;;;;;;;;;;;;;;;;;;;;;;;0;3;3;4;;;;;;;;;;;;;;;;;;;;;;;;;;;;;;;;;;;;;;;;;;;;;;;;;;;2118.511876466997;None;2118.511876466997;None;6;3.047197341998981;2118.511876466997;None;2118.5070144849988;None;;;;;;;;;02;001;0;1;2022_Mar_22_1220;VR_setting;2021.2.3;59.97692052109131;
audio/white.wav.wav;;;images/MAM11HAS.png;images/MAM11HAS.png;0;0;2;;;;;;;;;;;;;;;;;;;;;;;;;;;;;;;;;;;;;;;;;;;;;;;;;;;;;;;;;;;;;0;4;4;1;;;;;;;;;;;;;;;;;;;;;;;;;;;;;;;;;;;;;;;;;;;;;;;;;;;2123.6120853039974;None;2123.6120853039974;None;6;2.7876928440018673;2123.6120853039974;None;2123.606734349002;None;;;;;;;;;02;001;0;1;2022_Mar_22_1220;VR_setting;2021.2.3;59.97692052109131;
audio/tri_5Hz_-6dBFS_31s.wav;;;images/MAM11NES.png;images/MAM11NES.png;1;5;3;;;;;;;;;;;;;;;;;;;;;;;;;;;;;;;;;;;;;;;;;;;;;;;;;;;;;;;;;;;;;0;5;5;5;;;;;;;;;;;;;;;;;;;;;;;;;;;;;;;;;;;;;;;;;;;;;;;;;;;2128.445195114;None;2128.445195114;None;4;4.1059632190008415;2128.445195114;None;2128.4400734149995;None;;;;;;;;;02;001;0;1;2022_Mar_22_1220;VR_setting;2021.2.3;59.97692052109131;
audio/white.wav.wav;;;images/MAM11BFI.png;images/MAM11BFI.png;0;0;1;;;;;;;;;;;;;;;;;;;;;;;;;;;;;;;;;;;;;;;;;;;;;;;;;;;;;;;;;;;;;0;6;6;0;;;;;;;;;;;;;;;;;;;;;;;;;;;;;;;;;;;;;;;;;;;;;;;;;;;2134.5977253029996;None;2134.5977253029996;None;1;4.948776394994638;2134.5977253029996;None;2134.5899026340003;None;;;;;;;;;02;001;0;1;2022_Mar_22_1220;VR_setting;2021.2.3;59.97692052109131;
audio/tri_31Hz_-6dBFS_31s.wav;;;images/MAM11NES.png;images/MAM11NES.png;1;31;3;;;;;;;;;;;;;;;;;;;;;;;;;;;;;;;;;;;;;;;;;;;;;;;;;;;;;;;;;;;;;0;7;7;8;;;;;;;;;;;;;;;;;;;;;;;;;;;;;;;;;;;;;;;;;;;;;;;;;;;2141.598279375001;None;2141.598279375001;None;1;4.056325019999349;2141.598279375001;None;2141.5903214829987;None;;;;;;;;;02;001;0;1;2022_Mar_22_1220;VR_setting;2021.2.3;59.97692052109131;
audio/tri_31Hz_-6dBFS_31s.wav;;;images/MAM11BFI.png;images/MAM11BFI.png;1;31;1;;;;;;;;;;;;;;;;;;;;;;;;;;;;;;;;;;;;;;;;;;;;;;;;;;;;;;;;;;;;;0;8;8;6;;;;;;;;;;;;;;;;;;;;;;;;;;;;;;;;;;;;;;;;;;;;;;;;;;;2147.6961381619985;None;2147.6961381619985;None;2;3.7155845369998133;2147.6961381619985;None;2147.6896074860006;None;;;;;;;;;02;001;0;1;2022_Mar_22_1220;VR_setting;2021.2.3;59.97692052109131;
audio/white.wav.wav;;;images/MAM11HAS.png;images/MAM11HAS.png;0;0;2;;;;;;;;;;;;;;;;;;;;;;;;;;;;;;;;;;;;;;;;;;;;;;;;;;;;;;;;;;;;;1;0;9;1;;;;;;;;;;;;;;;;;;;;;;;;;;;;;;;;;;;;;;;;;;;;;;;;;;;2153.4587131989974;None;2153.4587131989974;None;7;5.36356039000384;2153.4587131989974;None;2153.456524807002;None;;;;;;;;;02;001;0;1;2022_Mar_22_1220;VR_setting;2021.2.3;59.97692052109131;
audio/tri_5Hz_-6dBFS_31s.wav;;;images/MAM11NES.png;images/MAM11NES.png;1;5;3;;;;;;;;;;;;;;;;;;;;;;;;;;;;;;;;;;;;;;;;;;;;;;;;;;;;;;;;;;;;;1;1;10;5;;;;;;;;;;;;;;;;;;;;;;;;;;;;;;;;;;;;;;;;;;;;;;;;;;;2160.8604530680022;None;2160.8604530680022;None;2;4.995705551002175;2160.8604530680022;None;2160.856114850004;None;;;;;;;;;02;001;0;1;2022_Mar_22_1220;VR_setting;2021.2.3;59.97692052109131;
audio/tri_5Hz_-6dBFS_31s.wav;;;images/MAM11BFI.png;images/MAM11BFI.png;1;5;1;;;;;;;;;;;;;;;;;;;;;;;;;;;;;;;;;;;;;;;;;;;;;;;;;;;;;;;;;;;;;1;2;11;3;;;;;;;;;;;;;;;;;;;;;;;;;;;;;;;;;;;;;;;;;;;;;;;;;;;2167.895903880002;None;2167.895903880002;None;3;6.127917195997725;2167.895903880002;None;2167.8895647519994;None;;;;;;;;;02;001;0;1;2022_Mar_22_1220;VR_setting;2021.2.3;59.97692052109131;
audio/tri_31Hz_-6dBFS_31s.wav;;;images/MAM11BFI.png;images/MAM11BFI.png;1;31;1;;;;;;;;;;;;;;;;;;;;;;;;;;;;;;;;;;;;;;;;;;;;;;;;;;;;;;;;;;;;;1;3;12;6;;;;;;;;;;;;;;;;;;;;;;;;;;;;;;;;;;;;;;;;;;;;;;;;;;;2176.076709064997;None;2176.076709064997;None;3;5.418442265996418;2176.076709064997;None;2176.072877841997;None;;;;;;;;;02;001;0;1;2022_Mar_22_1220;VR_setting;2021.2.3;59.97692052109131;
audio/tri_5Hz_-6dBFS_31s.wav;;;images/MAM11HAS.png;images/MAM11HAS.png;1;5;2;;;;;;;;;;;;;;;;;;;;;;;;;;;;;;;;;;;;;;;;;;;;;;;;;;;;;;;;;;;;;1;4;13;4;;;;;;;;;;;;;;;;;;;;;;;;;;;;;;;;;;;;;;;;;;;;;;;;;;;2183.5420703089985;None;2183.5420703089985;None;6;3.722204056000919;2183.5420703089985;None;2183.5392309650006;None;;;;;;;;;02;001;0;1;2022_Mar_22_1220;VR_setting;2021.2.3;59.97692052109131;
audio/white.wav.wav;;;images/MAM11BFI.png;images/MAM11BFI.png;0;0;1;;;;;;;;;;;;;;;;;;;;;;;;;;;;;;;;;;;;;;;;;;;;;;;;;;;;;;;;;;;;;1;5;14;0;;;;;;;;;;;;;;;;;;;;;;;;;;;;;;;;;;;;;;;;;;;;;;;;;;;2189.3080289110003;None;2189.3080289110003;None;2;5.237149134998617;2189.3080289110003;None;2189.3056912650018;None;;;;;;;;;02;001;0;1;2022_Mar_22_1220;VR_setting;2021.2.3;59.97692052109131;
audio/tri_31Hz_-6dBFS_31s.wav;;;images/MAM11HAS.png;images/MAM11HAS.png;1;31;2;;;;;;;;;;;;;;;;;;;;;;;;;;;;;;;;;;;;;;;;;;;;;;;;;;;;;;;;;;;;;1;6;15;7;;;;;;;;;;;;;;;;;;;;;;;;;;;;;;;;;;;;;;;;;;;;;;;;;;;2196.5918065840015;None;2196.5918065840015;None;7;6.213618998997845;2196.5918065840015;None;2196.589062151;None;;;;;;;;;02;001;0;1;2022_Mar_22_1220;VR_setting;2021.2.3;59.97692052109131;
audio/white.wav.wav;;;images/MAM11NES.png;images/MAM11NES.png;0;0;3;;;;;;;;;;;;;;;;;;;;;;;;;;;;;;;;;;;;;;;;;;;;;;;;;;;;;;;;;;;;;1;7;16;2;;;;;;;;;;;;;;;;;;;;;;;;;;;;;;;;;;;;;;;;;;;;;;;;;;;2204.8451503920005;None;2204.8451503920005;None;3;5.8964899179991335;2204.8451503920005;None;2204.838897092998;None;;;;;;;;;02;001;0;1;2022_Mar_22_1220;VR_setting;2021.2.3;59.97692052109131;
audio/tri_31Hz_-6dBFS_31s.wav;;;images/MAM11NES.png;images/MAM11NES.png;1;31;3;;;;;;;;;;;;;;;;;;;;;;;;;;;;;;;;;;;;;;;;;;;;;;;;;;;;;;;;;;;;;1;8;17;8;;;;;;;;;;;;;;;;;;;;;;;;;;;;;;;;;;;;;;;;;;;;;;;;;;;2212.792256050998;None;2212.792256050998;None;3;5.676576951998868;2212.792256050998;None;2212.788826879997;None;;;;;;;;;02;001;0;1;2022_Mar_22_1220;VR_setting;2021.2.3;59.97692052109131;
audio/tri_31Hz_-6dBFS_31s.wav;;;images/MAM11NES.png;images/MAM11NES.png;1;31;3;;;;;;;;;;;;;;;;;;;;;;;;;;;;;;;;;;;;;;;;;;;;;;;;;;;;;;;;;;;;;;;;;0;0;0;8;;;;;;;;;;;;;;;;;;;;;;;;;;;;;;;;;;;;;;;;;;;;;;;2240.5868497109986;None;2240.5868497109986;None;4;2.547659769996244;2240.5868497109986;None;2240.5884483590007;None;2218.4887975230013;None;2218.4887975230013;None;;;;;02;001;0;1;2022_Mar_22_1220;VR_setting;2021.2.3;59.97692052109131;
audio/tri_5Hz_-6dBFS_31s.wav;;;images/MAM11BFI.png;images/MAM11BFI.png;1;5;1;;;;;;;;;;;;;;;;;;;;;;;;;;;;;;;;;;;;;;;;;;;;;;;;;;;;;;;;;;;;;;;;;0;1;1;3;;;;;;;;;;;;;;;;;;;;;;;;;;;;;;;;;;;;;;;;;;;;;;;2245.1780557059974;None;2245.1780557059974;None;4;4.172433138002816;2245.1780557059974;None;2245.171623279998;None;;;;;;;;;02;001;0;1;2022_Mar_22_1220;VR_setting;2021.2.3;59.97692052109131;
audio/tri_5Hz_-6dBFS_31s.wav;;;images/MAM11HAS.png;images/MAM11HAS.png;1;5;2;;;;;;;;;;;;;;;;;;;;;;;;;;;;;;;;;;;;;;;;;;;;;;;;;;;;;;;;;;;;;;;;;0;2;2;4;;;;;;;;;;;;;;;;;;;;;;;;;;;;;;;;;;;;;;;;;;;;;;;2251.3932372940035;None;2251.3932372940035;None;7;8.116494175999833;2251.3932372940035;None;2251.3881671750014;None;;;;;;;;;02;001;0;1;2022_Mar_22_1220;VR_setting;2021.2.3;59.97692052109131;
audio/tri_31Hz_-6dBFS_31s.wav;;;images/MAM11HAS.png;images/MAM11HAS.png;1;31;2;;;;;;;;;;;;;;;;;;;;;;;;;;;;;;;;;;;;;;;;;;;;;;;;;;;;;;;;;;;;;;;;;0;3;3;7;;;;;;;;;;;;;;;;;;;;;;;;;;;;;;;;;;;;;;;;;;;;;;;2261.559056525999;None;2261.559056525999;None;7;2.391934177998337;2261.559056525999;None;2261.5548001410016;None;;;;;;;;;02;001;0;1;2022_Mar_22_1220;VR_setting;2021.2.3;59.97692052109131;
audio/white.wav.wav;;;images/MAM11HAS.png;images/MAM11HAS.png;0;0;2;;;;;;;;;;;;;;;;;;;;;;;;;;;;;;;;;;;;;;;;;;;;;;;;;;;;;;;;;;;;;;;;;0;4;4;1;;;;;;;;;;;;;;;;;;;;;;;;;;;;;;;;;;;;;;;;;;;;;;;2265.9934608320036;None;2265.9934608320036;None;7;2.3495132669995655;2265.9934608320036;None;2265.988078014004;None;;;;;;;;;02;001;0;1;2022_Mar_22_1220;VR_setting;2021.2.3;59.97692052109131;
audio/white.wav.wav;;;images/MAM11NES.png;images/MAM11NES.png;0;0;3;;;;;;;;;;;;;;;;;;;;;;;;;;;;;;;;;;;;;;;;;;;;;;;;;;;;;;;;;;;;;;;;;0;5;5;2;;;;;;;;;;;;;;;;;;;;;;;;;;;;;;;;;;;;;;;;;;;;;;;2270.394000469001;None;2270.394000469001;None;4;2.522460772001068;2270.394000469001;None;2270.388002151997;None;;;;;;;;;02;001;0;1;2022_Mar_22_1220;VR_setting;2021.2.3;59.97692052109131;
audio/tri_31Hz_-6dBFS_31s.wav;;;images/MAM11BFI.png;images/MAM11BFI.png;1;31;1;;;;;;;;;;;;;;;;;;;;;;;;;;;;;;;;;;;;;;;;;;;;;;;;;;;;;;;;;;;;;;;;;0;6;6;6;;;;;;;;;;;;;;;;;;;;;;;;;;;;;;;;;;;;;;;;;;;;;;;2274.960961441997;None;2274.960961441997;None;4;4.473344846002874;2274.960961441997;None;2274.9546387420005;None;;;;;;;;;02;001;0;1;2022_Mar_22_1220;VR_setting;2021.2.3;59.97692052109131;
audio/white.wav.wav;;;images/MAM11BFI.png;images/MAM11BFI.png;0;0;1;;;;;;;;;;;;;;;;;;;;;;;;;;;;;;;;;;;;;;;;;;;;;;;;;;;;;;;;;;;;;;;;;0;7;7;0;;;;;;;;;;;;;;;;;;;;;;;;;;;;;;;;;;;;;;;;;;;;;;;2281.473726231001;None;2281.473726231001;None;4;2.4283316989967716;2281.473726231001;None;2281.471083254003;None;;;;;;;;;02;001;0;1;2022_Mar_22_1220;VR_setting;2021.2.3;59.97692052109131;
audio/tri_5Hz_-6dBFS_31s.wav;;;images/MAM11NES.png;images/MAM11NES.png;1;5;3;;;;;;;;;;;;;;;;;;;;;;;;;;;;;;;;;;;;;;;;;;;;;;;;;;;;;;;;;;;;;;;;;0;8;8;5;;;;;;;;;;;;;;;;;;;;;;;;;;;;;;;;;;;;;;;;;;;;;;;2285.9439047769993;None;2285.9439047769993;None;7;4.200119145003555;2285.9439047769993;None;2285.9376662079985;None;;;;;;;;;02;001;0;1;2022_Mar_22_1220;VR_setting;2021.2.3;59.97692052109131;
audio/tri_5Hz_-6dBFS_31s.wav;;;images/MAM11HAS.png;images/MAM11HAS.png;1;5;2;;;;;;;;;;;;;;;;;;;;;;;;;;;;;;;;;;;;;;;;;;;;;;;;;;;;;;;;;;;;;;;;;1;0;9;4;;;;;;;;;;;;;;;;;;;;;;;;;;;;;;;;;;;;;;;;;;;;;;;2292.193637491;None;2292.193637491;None;7;2.9993902259957395;2292.193637491;None;2292.187776515001;None;;;;;;;;;02;001;0;1;2022_Mar_22_1220;VR_setting;2021.2.3;59.97692052109131;
audio/white.wav.wav;;;images/MAM11BFI.png;images/MAM11BFI.png;0;0;1;;;;;;;;;;;;;;;;;;;;;;;;;;;;;;;;;;;;;;;;;;;;;;;;;;;;;;;;;;;;;;;;;1;1;10;0;;;;;;;;;;;;;;;;;;;;;;;;;;;;;;;;;;;;;;;;;;;;;;;2297.2483392970025;None;2297.2483392970025;None;4;2.4763139650021913;2297.2483392970025;None;2297.254016804502;None;;;;;;;;;02;001;0;1;2022_Mar_22_1220;VR_setting;2021.2.3;59.97692052109131;
audio/tri_5Hz_-6dBFS_31s.wav;;;images/MAM11BFI.png;images/MAM11BFI.png;1;5;1;;;;;;;;;;;;;;;;;;;;;;;;;;;;;;;;;;;;;;;;;;;;;;;;;;;;;;;;;;;;;;;;;1;2;11;3;;;;;;;;;;;;;;;;;;;;;;;;;;;;;;;;;;;;;;;;;;;;;;;2301.775242263997;None;2301.775242263997;None;4;1.4229459619964473;2301.775242263997;None;2301.770991733999;None;;;;;;;;;02;001;0;1;2022_Mar_22_1220;VR_setting;2021.2.3;59.97692052109131;
audio/tri_31Hz_-6dBFS_31s.wav;;;images/MAM11NES.png;images/MAM11NES.png;1;31;3;;;;;;;;;;;;;;;;;;;;;;;;;;;;;;;;;;;;;;;;;;;;;;;;;;;;;;;;;;;;;;;;;1;3;12;8;;;;;;;;;;;;;;;;;;;;;;;;;;;;;;;;;;;;;;;;;;;;;;;2305.246175002998;None;2305.246175002998;None;4;5.131659990998742;2305.246175002998;None;2305.2375338340016;None;;;;;;;;;02;001;0;1;2022_Mar_22_1220;VR_setting;2021.2.3;59.97692052109131;
audio/tri_31Hz_-6dBFS_31s.wav;;;images/MAM11BFI.png;images/MAM11BFI.png;1;31;1;;;;;;;;;;;;;;;;;;;;;;;;;;;;;;;;;;;;;;;;;;;;;;;;;;;;;;;;;;;;;;;;;1;4;13;6;;;;;;;;;;;;;;;;;;;;;;;;;;;;;;;;;;;;;;;;;;;;;;;2312.4270970729995;None;2312.4270970729995;None;4;3.6720927280039177;2312.4270970729995;None;2312.420881866;None;;;;;;;;;02;001;0;1;2022_Mar_22_1220;VR_setting;2021.2.3;59.97692052109131;
audio/white.wav.wav;;;images/MAM11NES.png;images/MAM11NES.png;0;0;3;;;;;;;;;;;;;;;;;;;;;;;;;;;;;;;;;;;;;;;;;;;;;;;;;;;;;;;;;;;;;;;;;1;5;14;2;;;;;;;;;;;;;;;;;;;;;;;;;;;;;;;;;;;;;;;;;;;;;;;2318.1438017830005;None;2318.1438017830005;None;4;3.2349731779977446;2318.1438017830005;None;2318.1373899069977;None;;;;;;;;;02;001;0;1;2022_Mar_22_1220;VR_setting;2021.2.3;59.97692052109131;
audio/tri_5Hz_-6dBFS_31s.wav;;;images/MAM11NES.png;images/MAM11NES.png;1;5;3;;;;;;;;;;;;;;;;;;;;;;;;;;;;;;;;;;;;;;;;;;;;;;;;;;;;;;;;;;;;;;;;;1;6;15;5;;;;;;;;;;;;;;;;;;;;;;;;;;;;;;;;;;;;;;;;;;;;;;;2323.419130686998;None;2323.419130686998;None;4;2.6379739990006783;2323.419130686998;None;2323.420522510004;None;;;;;;;;;02;001;0;1;2022_Mar_22_1220;VR_setting;2021.2.3;59.97692052109131;
audio/white.wav.wav;;;images/MAM11HAS.png;images/MAM11HAS.png;0;0;2;;;;;;;;;;;;;;;;;;;;;;;;;;;;;;;;;;;;;;;;;;;;;;;;;;;;;;;;;;;;;;;;;1;7;16;1;;;;;;;;;;;;;;;;;;;;;;;;;;;;;;;;;;;;;;;;;;;;;;;2328.109803471998;None;2328.109803471998;None;7;1.7388529119998566;2328.109803471998;None;2328.103916768002;None;;;;;;;;;02;001;0;1;2022_Mar_22_1220;VR_setting;2021.2.3;59.97692052109131;
audio/tri_31Hz_-6dBFS_31s.wav;;;images/MAM11HAS.png;images/MAM11HAS.png;1;31;2;;;;;;;;;;;;;;;;;;;;;;;;;;;;;;;;;;;;;;;;;;;;;;;;;;;;;;;;;;;;;;;;;1;8;17;7;;;;;;;;;;;;;;;;;;;;;;;;;;;;;;;;;;;;;;;;;;;;;;;2331.892469006001;None;2331.892469006001;None;7;2.8466073279996635;2331.892469006001;None;2331.887122244002;None;;;;;;;;;02;001;0;1;2022_Mar_22_1220;VR_setting;2021.2.3;59.97692052109131;
;;;;;;;;;;;;;;;;;;;;;;;;;;;;;;;;;;;;;;;;;;;;;;;;;;;;;;;;;;;;;;;;;;;;;;;;;;;;;;;;;;;;;;;;;;;;;;;;;;;;;;;;;;;;;;;;;;;;;;;;;;;;;;;;;;;;;;;;2334.770533570998;None;2334.770533570998;None;;;;;;;;;
